timestamp,accelX,accelY,accelZ,gyroX,gyroY,gyroZ,altitude,activity,delta_time,accelX_rate_of_change,accelY_rate_of_change,accelZ_rate_of_change,gyroX_rate_of_change,gyroY_rate_of_change,gyroZ_rate_of_change,altitude_rate_of_change
90671,-0.17,-0.18,-0.18,20.7,19.07,17.56,213.86,Stairs,2509.0,-8.369868473495417e-05,-8.76843363889996e-05,-8.76843363889996e-05,0.0055599840573933,0.0050498206456755,0.0045874850538062,-5.181347150258886e-05
93180,-0.15,-0.16,-0.16,-56.27,-56.93,-57.51,213.5,Stairs,2509.0,7.97130330809088e-06,7.97130330809087e-06,7.97130330809087e-06,-0.0306775607811877,-0.0302909525707453,-0.029920286966919,-0.0001434834595456
95689,-0.17,-0.17,-0.18,-51.32,-53.05,-54.76,213.06,Stairs,2509.0,-7.97130330809088e-06,-3.98565165404544e-06,-7.97130330809087e-06,0.0019728975687524,0.0015464328417696,0.0010960542048624,-0.0001753686727779
98198,-0.08,-0.08,-0.08,-71.0,-70.7,-70.47,212.42,Stairs,2509.0,3.587086488640893e-05,3.587086488640893e-05,3.985651654045436e-05,-0.0078437624551614,-0.0070346751693901,-0.0062614587485053,-0.0002550817058589
100707,-0.24,-0.24,-0.24,-51.17,-49.85,-48.61,211.79,Stairs,2509.0,-6.377042646472697e-05,-6.377042646472697e-05,-6.377042646472697e-05,0.007903547229972,0.0083100836986847,0.0087126345157433,-0.0002510960542048
103216,-0.08,-0.08,-0.08,43.11,43.89,44.68,211.56,Stairs,2509.0,6.377042646472697e-05,6.377042646472697e-05,6.377042646472697e-05,0.0375767237943403,0.0373614986050219,0.0371821442805898,-9.166998804304096e-05
105725,-0.17,-0.18,-0.18,68.34,68.35,68.27,211.67,Stairs,2509.0,-3.587086488640893e-05,-3.985651654045436e-05,-3.985651654045436e-05,0.0100557991231566,0.0097489039457951,0.0094021522518931,4.384216819449391e-05
108234,-0.03,-0.02,-0.02,34.26,33.76,33.46,212.04,Stairs,2509.0,5.579912315663611e-05,6.377042646472698e-05,6.377042646472698e-05,-0.0135831008369868,-0.0137863690713431,-0.0138740534077321,0.0001474691111996
110743,-0.24,-0.24,-0.24,-80.95,-80.5,-79.98,212.38,Stairs,2509.0,-8.369868473495416e-05,-8.76843363889996e-05,-8.76843363889996e-05,-0.0459186927062574,-0.0455400557991231,-0.0452132323634914,0.0001355121562375
113252,-0.19,-0.19,-0.19,80.97,80.77,80.49,212.78,Stairs,2509.0,1.992825827022718e-05,1.992825827022718e-05,1.992825827022718e-05,0.0645356715823037,0.0642766042247907,0.0639577520924671,0.0001594260661618
115761,-0.19,-0.19,-0.2,32.37,33.63,34.88,213.37,Stairs,2509.0,0.0,0.0,-3.98565165404544e-06,-0.0193702670386608,-0.0187883618971701,-0.0181785571941012,0.0002351534475886
118270,-0.44,-0.44,-0.44,-30.8,-31.2,-31.51,214.04,Stairs,2509.0,-9.964129135113592e-05,-9.964129135113592e-05,-9.565563969709048e-05,-0.025177361498605,-0.0258389796731765,-0.0264607413312076,0.000267038660821
120779,-0.17,-0.17,-0.17,19.56,20.02,20.38,214.39,Stairs,2509.0,0.0001076125946592,0.0001076125946592,0.0001076125946592,0.0200717417297728,0.0204145077720207,0.0206815464328417,0.0001394978078915
123288,-0.15,-0.15,-0.15,-36.1,-35.29,-34.47,214.38,Stairs,2509.0,7.97130330809088e-06,7.97130330809088e-06,7.97130330809088e-06,-0.0221841371064169,-0.0220446392985253,-0.0218612993224392,-3.985651654041811e-06
125797,-0.33,-0.32,-0.32,37.16,37.0,36.76,214.19,Stairs,2509.0,-7.174172977281786e-05,-6.775607811877243e-05,-6.775607811877243e-05,0.0291988840175368,0.0288122758070944,0.0283897967317656,-7.572738142686239e-05
128306,-0.21,-0.21,-0.21,41.0,40.85,40.56,213.82,Stairs,2509.0,4.782781984854525e-05,4.384216819449981e-05,4.384216819449981e-05,0.0015304902351534,0.0015344758868074,0.0015145476285372,-0.0001474691111996
130815,-0.37,-0.36,-0.36,-1.37,-0.79,-0.31,213.22,Stairs,2509.0,-6.377042646472698e-05,-5.9784774810681545e-05,-5.9784774810681545e-05,-0.0168872060581905,-0.0165962534874451,-0.0162893583100837,-0.0002391390992427
133324,-0.52,-0.53,-0.54,-49.75,-50.93,-51.99,212.66,Stairs,2509.0,-5.978477481068155e-05,-6.775607811877243e-05,-7.174172977281788e-05,-0.0192825827022718,-0.0199840573933838,-0.0205978477481068,-0.0002231964926265
135833,-0.66,-0.66,-0.66,-70.21,-70.98,-71.78,211.91,Stairs,2509.0,-5.579912315663611e-05,-5.1813471502590674e-05,-4.782781984854524e-05,-0.0081546432841769,-0.0079912315663611,-0.0078876046233559,-0.0002989238740534
138341,-0.28,-0.28,-0.28,101.85,102.9,104.02,211.44,Stairs,2508.0,0.0001515151515151,0.0001515151515151,0.0001515151515151,0.0686044657097288,0.0693301435406698,0.0700956937799043,-0.0001874003189792
140850,-0.28,-0.28,-0.28,75.18,75.15,75.17,211.34,Stairs,2509.0,0.0,0.0,0.0,-0.0106297329613391,-0.011060183339976,-0.011498605021921,-3.98565165404521e-05
143359,-0.36,-0.36,-0.36,87.63,87.02,86.31,211.44,Stairs,2509.0,-3.188521323236348e-05,-3.188521323236348e-05,-3.188521323236348e-05,0.0049621363092865,0.0047309685133519,0.0044400159426066,3.98565165404521e-05
145868,-0.56,-0.56,-0.56,-2.79,-3.38,-4.1,211.65,Stairs,2509.0,-7.971303308090875e-05,-7.971303308090875e-05,-7.971303308090875e-05,-0.0360382622558788,-0.0360302909525707,-0.0360342766042247,8.369868473495733e-05
148377,-0.26,-0.26,-0.25,2.98,2.51,2.25,211.98,Stairs,2509.0,0.0001195695496213,0.0001195695496213,0.0001235552012754,0.0022997210043842,0.0023475488242327,0.0025308888003188,0.0001315265045834
150886,-0.2,-0.2,-0.2,-14.99,-14.64,-14.29,212.43,Stairs,2509.0,2.3913909924272617e-05,2.3913909924272617e-05,1.992825827022718e-05,-0.0071622160223196,-0.0068353925866879,-0.0065922678357911,0.000179354324432
153395,-0.32,-0.32,-0.32,21.58,21.73,21.97,212.94,Stairs,2509.0,-4.782781984854524e-05,-4.782781984854524e-05,-4.782781984854524e-05,0.0145755280988441,0.0144958150657632,0.0144519728975687,0.0002032682343563
155904,-0.24,-0.23,-0.23,-16.29,-16.0,-15.73,213.54,Stairs,2509.0,3.18852132323635e-05,3.5870864886408924e-05,3.5870864886408924e-05,-0.01509366281387,-0.0150378636907134,-0.0150259067357512,0.0002391390992427
158413,-0.62,-0.62,-0.61,-49.0,-48.89,-48.68,213.87,Stairs,2509.0,-0.0001514547628537,-0.0001554404145077,-0.0001514547628537,-0.0130370665603826,-0.0131088082901554,-0.0131327222000797,0.0001315265045835
160922,-0.34,-0.33,-0.34,-36.69,-36.72,-36.81,213.88,Stairs,2509.0,0.0001115982463132,0.0001155838979673,0.0001076125946592,0.0049063371861299,0.0048505380629732,0.0047309685133519,3.985651654041811e-06
163431,-0.4,-0.4,-0.4,9.23,8.76,8.42,213.68,Stairs,2509.0,-2.3913909924272617e-05,-2.7899561578318056e-05,-2.3913909924272617e-05,0.0183021123953766,0.0181267437225986,0.0180271024312475,-7.97130330809042e-05
165940,-0.25,-0.25,-0.25,51.68,52.88,53.27,213.3,Stairs,2509.0,5.978477481068155e-05,5.978477481068155e-05,5.978477481068155e-05,0.0169190912714228,0.0175846950976484,0.0178756476683937,-0.0001514547628537
168449,-0.56,-0.56,-0.56,45.31,45.92,46.77,212.9,Stairs,2509.0,-0.0001235552012754,-0.0001235552012754,-0.0001235552012754,-0.0025388601036269,-0.0027740135512156,-0.0025906735751295,-0.0001594260661618
170958,-0.24,-0.24,-0.24,-51.24,-50.89,-50.51,212.4,Stairs,2509.0,0.0001275408529294,0.0001275408529294,0.0001275408529294,-0.0384814667198086,-0.0385850936628138,-0.038772419290554,-0.0001992825827022
173467,-0.09,-0.09,-0.09,-7.51,-7.34,-7.11,211.82,Stairs,2509.0,5.9784774810681545e-05,5.9784774810681545e-05,5.9784774810681545e-05,0.0174292546831406,0.0173575129533678,0.0172977281785571,-0.0002311677959346
175976,-0.05,-0.05,-0.04,11.4,11.09,10.74,211.28,Stairs,2509.0,1.5942606616181743e-05,1.5942606616181743e-05,1.9928258270227185e-05,0.0075368672777999,0.0073455559984057,0.0071143882024711,-0.0002152251893184
178485,-0.16,-0.16,-0.17,71.18,71.57,71.7,211.08,Stairs,2509.0,-4.38421681944998e-05,-4.38421681944998e-05,-5.1813471502590674e-05,0.0238262255878836,0.0241052212036667,0.0242965324830609,-7.97130330809042e-05
180994,-0.13,-0.13,-0.12,-34.63,-34.91,-35.18,211.09,Stairs,2509.0,1.1956954962136309e-05,1.1956954962136309e-05,1.992825827022719e-05,-0.0421721801514547,-0.0424392188122758,-0.0425986448784376,3.985651654041811e-06
183503,-0.42,-0.42,-0.42,101.11,101.18,101.17,211.33,Stairs,2509.0,-0.0001155838979673,-0.0001155838979673,-0.0001195695496213,0.0541012355520127,0.0542407333599043,0.0543443603029095,9.56556396970941e-05
186012,-0.34,-0.34,-0.34,20.58,20.65,20.73,211.61,Stairs,2509.0,3.188521323236348e-05,3.188521323236348e-05,3.188521323236348e-05,-0.0320964527700279,-0.0320964527700279,-0.0320605819051414,0.0001115982463132
188521,-0.13,-0.13,-0.13,-58.1,-57.72,-57.32,212.02,Stairs,2509.0,8.369868473495417e-05,8.369868473495417e-05,8.369868473495417e-05,-0.0313591072140295,-0.031235552012754,-0.0311080111598246,0.0001634117178158
191030,-0.4,-0.39,-0.39,63.2,63.21,63.21,212.39,Stairs,2509.0,-0.0001076125946592,-0.0001036269430051,-0.0001036269430051,0.0483459545635711,0.0481984854523714,0.0480390593862096,0.0001474691111996
193539,-0.25,-0.25,-0.25,-93.42,-93.72,-93.97,212.85,Stairs,2509.0,5.978477481068155e-05,5.579912315663611e-05,5.579912315663611e-05,-0.0624232762056596,-0.062546831406935,-0.0626464726982861,0.000183339976086
196048,-0.18,-0.18,-0.18,11.06,11.4,11.78,213.41,Stairs,2509.0,2.7899561578318056e-05,2.7899561578318056e-05,2.7899561578318056e-05,0.0416420884814667,0.0418971701873256,0.0421482662415304,0.0002231964926265
198557,-0.37,-0.36,-0.36,96.6,94.61,92.87,213.91,Stairs,2509.0,-7.57273814268633e-05,-7.174172977281785e-05,-7.174172977281785e-05,0.0340932642487046,0.033164607413312,0.0323196492626544,0.0001992825827022
201066,-0.45,-0.45,-0.45,69.24,67.95,66.81,214.12,Stairs,2509.0,-3.18852132323635e-05,-3.587086488640894e-05,-3.587086488640894e-05,-0.0109047429254683,-0.0106257473096851,-0.0103866082104424,8.369868473495733e-05
203575,-0.03,-0.03,-0.04,-13.66,-14.15,-14.58,214.08,Stairs,2509.0,0.0001673973694699,0.0001673973694699,0.0001634117178158,-0.0330410522120366,-0.032722200079713,-0.0324392188122758,-1.5942606616178575e-05
206084,-0.13,-0.13,-0.13,-88.85,-88.56,-88.34,213.85,Stairs,2509.0,-3.985651654045436e-05,-3.985651654045436e-05,-3.5870864886408924e-05,-0.0299681147867676,-0.029657233957752,-0.0293981666002391,-9.166998804305227e-05
208593,-0.12,-0.12,-0.12,-7.51,-7.36,-7.25,213.51,Stairs,2509.0,3.98565165404544e-06,3.98565165404544e-06,3.98565165404544e-06,0.0324192905540055,0.0323634914308489,0.0323196492626544,-0.0001355121562375
211102,-0.16,-0.16,-0.16,-41.7,-42.44,-42.97,213.05,Stairs,2509.0,-1.594260661618175e-05,-1.594260661618175e-05,-1.594260661618175e-05,-0.0136269430051813,-0.0139816660023913,-0.0142367477082502,-0.000183339976086
213611,-0.11,-0.1,-0.1,-4.27,-3.78,-3.28,212.45,Stairs,2509.0,1.9928258270227185e-05,2.3913909924272617e-05,2.3913909924272617e-05,0.014918294141092,0.0154085292945396,0.0158190514149063,-0.0002391390992427
216120,-0.09,-0.1,-0.1,-39.08,-39.04,-39.03,211.8,Stairs,2509.0,7.971303308090875e-06,0.0,0.0,-0.0138740534077321,-0.0140534077321642,-0.0142487046632124,-0.0002590673575129
218629,-0.01,-0.01,-0.01,3.82,3.78,3.88,211.19,Stairs,2509.0,3.188521323236349e-05,3.587086488640893e-05,3.587086488640893e-05,0.0170984455958549,0.0170665603826225,0.0171024312475089,-0.0002431247508967
221138,-0.25,-0.25,-0.25,-137.24,-137.36,-137.55,210.84,Stairs,2509.0,-9.565563969709048e-05,-9.565563969709048e-05,-9.565563969709048e-05,-0.0562216022319649,-0.0562534874451972,-0.0563690713431646,-0.0001394978078915
223647,0.12,0.12,0.12,-22.42,-22.58,-22.66,210.81,Stairs,2509.0,0.0001474691111996,0.0001474691111996,0.0001474691111996,0.0457632522917497,0.0457473096851335,0.045791151853328,-1.1956954962136764e-05
226156,0.22,0.22,0.21,69.53,69.73,70.01,210.9,Stairs,2509.0,3.985651654045436e-05,3.985651654045436e-05,3.5870864886408924e-05,0.0366480669589477,0.0367915504184934,0.036935033878039,3.5870864886410286e-05
228665,-0.02,-0.02,-0.02,-24.76,-25.08,-25.44,211.15,Stairs,2509.0,-9.565563969709048e-05,-9.565563969709048e-05,-9.166998804304504e-05,-0.0375807094459944,-0.0377879633320047,-0.0380430450378636,9.964129135113592e-05
231174,0.0,-0.0,-0.0,-2.26,-1.85,-1.4,211.52,Stairs,2509.0,7.971303308090873e-06,7.971303308090873e-06,7.971303308090873e-06,0.0089677162216022,0.0092586687923475,0.0095815065763252,0.0001474691111996
233683,-0.03,-0.03,-0.03,-1.71,-2.04,-2.27,212.1,Stairs,2509.0,-1.1956954962136309e-05,-1.1956954962136309e-05,-1.1956954962136309e-05,0.0002192108409724,-7.572738142686327e-05,-0.0003467516939019,0.0002311677959346
236192,-0.02,-0.02,-0.02,-40.64,-41.02,-41.15,212.55,Stairs,2509.0,3.985651654045436e-06,3.985651654045436e-06,3.985651654045436e-06,-0.0155161418891988,-0.0155360701474691,-0.0154962136309286,0.000179354324432
238701,-0.1,-0.1,-0.1,-12.3,-12.7,-13.15,213.18,Stairs,2509.0,-3.188521323236349e-05,-3.188521323236349e-05,-3.188521323236349e-05,0.0112953367875647,0.0112873654842566,0.0111598246313272,0.0002510960542048
243719,0.06,0.06,0.06,1.89,2.37,2.92,213.83,Stairs,5018.0,3.188521323236349e-05,3.188521323236349e-05,3.188521323236349e-05,0.0028278198485452,0.0030031885213232,0.0032024711040255,0.0001295336787564
246228,-0.0,-0.0,-0.0,-75.98,-75.65,-75.35,213.9,Stairs,2509.0,-2.3913909924272617e-05,-2.3913909924272617e-05,-2.3913909924272617e-05,-0.0310362694300518,-0.0310960542048625,-0.0311956954962136,2.7899561578315336e-05
248737,-0.08,-0.07,-0.07,26.4,26.53,26.67,213.7,Stairs,2509.0,-3.188521323236349e-05,-2.7899561578318056e-05,-2.7899561578318056e-05,0.0408051016341171,0.0407253886010362,0.0406616181745715,-7.971303308091553e-05
256264,-0.17,-0.18,-0.18,72.27,71.15,70.12,212.0,Stairs,2509.0,-5.978477481068155e-05,-6.377042646472698e-05,-6.377042646472698e-05,0.0384734954165006,0.0381466719808688,0.0378676763650856,-0.0002829812674372
258773,-0.12,-0.13,-0.12,-45.87,-45.63,-45.41,211.33,Stairs,2509.0,1.992825827022719e-05,1.992825827022718e-05,2.3913909924272617e-05,-0.0470864886408927,-0.0465444400159426,-0.0460462335591869,-0.000267038660821
261282,0.02,0.02,0.02,4.33,4.21,4.05,210.89,Stairs,2509.0,5.5799123156636106e-05,5.9784774810681545e-05,5.5799123156636106e-05,0.020007971303308,0.0198644878437624,0.0197130330809087,-0.000175368672778
263791,-0.12,-0.12,-0.12,-14.76,-14.63,-14.53,210.79,Stairs,2509.0,-5.5799123156636106e-05,-5.5799123156636106e-05,-5.5799123156636106e-05,-0.0076086090075727,-0.0075089677162216,-0.0074053407732164,-3.98565165404521e-05
266300,-0.13,-0.12,-0.13,19.67,19.37,19.02,210.89,Stairs,2509.0,-3.98565165404544e-06,0.0,-3.98565165404544e-06,0.0137225986448784,0.0135512156237544,0.0133718612993224,3.98565165404521e-05
268809,0.0,0.0,0.01,15.44,15.27,15.17,211.15,Stairs,2509.0,5.1813471502590674e-05,4.782781984854524e-05,5.579912315663611e-05,-0.0016859306496612,-0.0016341171781586,-0.0015344758868074,0.0001036269430051
271318,-0.11,-0.11,-0.11,-51.95,-51.61,-51.31,211.46,Stairs,2509.0,-4.38421681944998e-05,-4.38421681944998e-05,-4.782781984854524e-05,-0.0268593064966121,-0.0266560382622558,-0.026496612196094,0.0001235552012754
273827,-0.2,-0.2,-0.2,48.25,48.63,49.08,211.83,Stairs,2509.0,-3.587086488640893e-05,-3.587086488640893e-05,-3.587086488640893e-05,0.0399362295735352,0.0399521721801514,0.0400119569549621,0.0001474691111996
276336,-0.07,-0.06,-0.06,-65.86,-65.75,-65.6,212.26,Stairs,2509.0,5.1813471502590674e-05,5.579912315663611e-05,5.579912315663611e-05,-0.0454802710243124,-0.0455878836189717,-0.045707453168593,0.0001713830211239
278845,-0.07,-0.07,-0.07,32.53,32.13,31.72,212.77,Stairs,2509.0,0.0,-3.98565165404544e-06,-3.98565165404544e-06,0.039214826624153,0.0390115583897967,0.0387883618971701,0.0002032682343563
281354,0.02,0.02,0.02,-9.69,-9.52,-9.37,213.36,Stairs,2509.0,3.587086488640893e-05,3.587086488640893e-05,3.587086488640893e-05,-0.0168274212833798,-0.0166002391390992,-0.0163770426464726,0.0002351534475886
283863,-0.12,-0.12,-0.12,-42.33,-42.38,-42.41,213.71,Stairs,2509.0,-5.5799123156636106e-05,-5.5799123156636106e-05,-5.5799123156636106e-05,-0.0130091669988043,-0.0130968513351933,-0.0131685930649661,0.0001394978078915
286372,-0.17,-0.17,-0.17,-40.92,-41.18,-41.64,213.75,Stairs,2509.0,-1.992825827022719e-05,-1.992825827022719e-05,-1.992825827022719e-05,0.0005619768832204,0.0004782781984854,0.0003068951773614,1.5942606616178575e-05
288880,-0.28,-0.28,-0.28,-55.51,-55.87,-56.15,213.54,Stairs,2508.0,-4.385964912280702e-05,-4.385964912280702e-05,-4.385964912280702e-05,-0.0058173843700159,-0.0058572567783094,-0.0057854864433811,-8.373205741627111e-05
291389,-0.08,-0.08,-0.08,-7.37,-7.61,-7.73,213.19,Stairs,2509.0,7.971303308090873e-05,7.971303308090873e-05,7.971303308090873e-05,0.0191869270625747,0.0192347548824232,0.019298525308888,-0.0001394978078915
293898,-0.12,-0.13,-0.13,-38.77,-38.85,-38.82,212.66,Stairs,2509.0,-1.5942606616181743e-05,-1.9928258270227185e-05,-1.9928258270227185e-05,-0.0125149461937026,-0.0124511757672379,-0.0123913909924272,-0.0002112395376644
298916,-0.31,-0.31,-0.3,102.52,102.4,102.27,211.38,Stairs,2509.0,-1.992825827022718e-05,-1.594260661618174e-05,-1.19569549621363e-05,-0.021937026703866,-0.0223913909924272,-0.0228337983260263,-0.000267038660821
301425,-0.31,-0.3,-0.3,-70.11,-70.57,-71.01,210.74,Stairs,2509.0,0.0,3.98565165404544e-06,0.0,-0.0688043045037863,-0.0689398166600239,-0.0690633718612993,-0.0002550817058589
303934,-0.08,-0.08,-0.08,-28.16,-28.15,-28.18,210.52,Stairs,2509.0,9.166998804304504e-05,8.768433638899959e-05,8.768433638899959e-05,0.0167198086887206,0.0169071343164607,0.0170705460342766,-8.768433638899914e-05
306443,-0.12,-0.13,-0.12,35.28,35.05,34.94,210.54,Stairs,2509.0,-1.5942606616181743e-05,-1.9928258270227185e-05,-1.5942606616181743e-05,0.0252849740932642,0.0251893184535671,0.0251574332403347,7.971303308083622e-06
308952,-0.09,-0.08,-0.08,-19.94,-19.41,-19.06,210.74,Stairs,2509.0,1.1956954962136309e-05,1.9928258270227185e-05,1.5942606616181743e-05,-0.0220087684336389,-0.0217058589079314,-0.0215225189318453,7.971303308091553e-05
311461,-0.13,-0.12,-0.12,74.11,73.82,73.66,211.05,Stairs,2509.0,-1.594260661618175e-05,-1.5942606616181743e-05,-1.5942606616181743e-05,0.0374850538062973,0.0371582303706656,0.0369549621363092,0.0001235552012754
313970,-0.12,-0.13,-0.12,-74.95,-74.85,-74.79,211.3,Stairs,2509.0,3.98565165404544e-06,-3.98565165404544e-06,0.0,-0.0594101235552012,-0.0592546831406935,-0.0591669988043044,9.964129135113592e-05
316479,-0.17,-0.17,-0.16,50.95,51.19,51.34,211.82,Stairs,2509.0,-1.992825827022719e-05,-1.594260661618175e-05,-1.594260661618175e-05,0.050179354324432,0.0502351534475886,0.050271024312475,0.0002072538860103
318988,0.01,0.01,0.0,-36.65,-36.95,-37.15,212.24,Stairs,2509.0,7.174172977281786e-05,7.174172977281786e-05,6.377042646472698e-05,-0.034914308489438,-0.0351295336787564,-0.035269031486648,0.0001673973694699
321497,-0.11,-0.11,-0.11,57.43,58.11,58.53,212.73,Stairs,2509.0,-4.782781984854524e-05,-4.782781984854524e-05,-4.38421681944998e-05,0.0374970107612594,0.0378876046233559,0.0381347150259067,0.0001952969310482
324006,-0.18,-0.18,-0.18,55.75,55.94,56.13,213.28,Stairs,2509.0,-2.7899561578318053e-05,-2.7899561578318053e-05,-2.7899561578318053e-05,-0.0006695894778796,-0.0008648864089278,-0.0009565563969709,0.0002192108409725
326515,-0.11,-0.1,-0.1,-3.52,-3.72,-3.94,213.53,Stairs,2509.0,2.7899561578318053e-05,3.1885213232363485e-05,3.1885213232363485e-05,-0.0236229573535273,-0.023778397768035,-0.0239418094858509,9.964129135113592e-05
329024,-0.13,-0.12,-0.12,-72.17,-71.96,-71.73,213.57,Stairs,2509.0,-7.971303308090875e-06,-7.97130330809087e-06,-7.97130330809087e-06,-0.0273614986050219,-0.027198086887206,-0.027018732562774,1.5942606616178575e-05
331533,-0.16,-0.16,-0.16,-32.28,-31.91,-31.53,213.43,Stairs,2509.0,-1.1956954962136309e-05,-1.594260661618175e-05,-1.594260661618175e-05,0.0158987644479872,0.0159625348744519,0.0160223196492626,-5.579912315663067e-05
334042,-0.19,-0.2,-0.2,44.37,44.14,43.92,213.11,Stairs,2509.0,-1.1956954962136309e-05,-1.594260661618175e-05,-1.594260661618175e-05,0.0305500199282582,0.0303108808290155,0.0300717417297728,-0.0001275408529294
336551,-0.14,-0.14,-0.14,-40.81,-40.22,-39.54,212.68,Stairs,2509.0,1.992825827022718e-05,2.3913909924272617e-05,2.3913909924272617e-05,-0.033949780789159,-0.0336229573535273,-0.0332642487046632,-0.0001713830211239
339060,-0.03,-0.03,-0.03,-20.69,-20.84,-21.02,212.14,Stairs,2509.0,4.384216819449981e-05,4.384216819449981e-05,4.384216819449981e-05,0.0080191311279394,0.00772419290554,0.0073814268632921,-0.0002152251893184
341569,-0.22,-0.22,-0.22,-65.29,-65.6,-65.84,211.6,Stairs,2509.0,-7.57273814268633e-05,-7.57273814268633e-05,-7.57273814268633e-05,-0.0177760063770426,-0.0178397768035073,-0.0178636907134316,-0.0002152251893184
344078,-0.16,-0.15,-0.15,90.62,89.87,89.21,211.0,Stairs,2509.0,2.3913909924272617e-05,2.7899561578318056e-05,2.7899561578318056e-05,0.0621402949382224,0.0619649262654444,0.0617975288959744,-0.0002391390992427
346587,-0.09,-0.09,-0.09,-27.41,-27.7,-27.89,210.67,Stairs,2509.0,2.7899561578318056e-05,2.3913909924272617e-05,2.3913909924272617e-05,-0.0470426464726982,-0.0468593064966122,-0.046671980868872,-0.0001315265045835
349096,-0.08,-0.08,-0.08,83.81,83.64,83.44,210.67,Stairs,2509.0,3.985651654045435e-06,3.985651654045435e-06,3.985651654045435e-06,0.0443284176962933,0.0443762455161418,0.0443722598644878,0.0
351605,-0.09,-0.09,-0.09,-69.19,-69.12,-69.21,210.74,Stairs,2509.0,-3.985651654045435e-06,-3.985651654045435e-06,-3.985651654045435e-06,-0.0609804703068951,-0.060884814667198,-0.0608409724990035,2.7899561578326662e-05
354114,-0.08,-0.08,-0.08,87.4,88.4,89.31,210.95,Stairs,2509.0,3.985651654045435e-06,3.985651654045435e-06,3.985651654045435e-06,0.0624113192506974,0.0627819848545237,0.0631805500199282,8.369868473494601e-05
356623,-0.04,-0.04,-0.04,0.05,-0.25,-0.35,211.27,Stairs,2509.0,1.5942606616181746e-05,1.5942606616181746e-05,1.5942606616181746e-05,-0.0348146671980868,-0.0353328019131128,-0.0357353527301713,0.0001275408529294
359132,0.01,0.01,0.01,-20.5,-20.41,-20.4,211.71,Stairs,2509.0,1.9928258270227185e-05,1.9928258270227185e-05,1.9928258270227185e-05,-0.0081905141490633,-0.0080350737345556,-0.007991231566361,0.0001753686727779
361641,-0.24,-0.24,-0.24,94.1,94.32,94.57,212.19,Stairs,2509.0,-9.964129135113592e-05,-9.964129135113592e-05,-9.964129135113592e-05,0.0456755679553607,0.0457273814268632,0.0458230370665603,0.0001913112793941
364150,-0.14,-0.14,-0.14,-13.4,-14.21,-14.96,212.65,Stairs,2509.0,3.985651654045436e-05,3.985651654045436e-05,3.985651654045436e-05,-0.0428457552809884,-0.0432562774013551,-0.0436548425667596,0.000183339976086
366659,-0.18,-0.17,-0.17,-67.62,-67.22,-66.85,213.19,Stairs,2509.0,-1.594260661618174e-05,-1.1956954962136309e-05,-1.1956954962136309e-05,-0.0216102032682343,-0.0211279394180948,-0.0206815464328417,0.0002152251893184
369168,-0.18,-0.18,-0.18,10.84,11.24,11.53,213.45,Stairs,2509.0,0.0,-3.985651654045429e-06,-3.985651654045429e-06,0.0312714228776404,0.0312714228776404,0.0312395376644081,0.0001036269430051
371677,0.17,0.18,0.18,-45.79,-46.53,-47.17,213.45,Stairs,2509.0,0.0001394978078915,0.0001434834595456,0.0001434834595456,-0.0225707453168593,-0.0230251096054204,-0.0233957752092467,0.0
374186,0.04,0.05,0.04,19.98,19.98,19.91,213.36,Stairs,2509.0,-5.1813471502590674e-05,-5.1813471502590674e-05,-5.5799123156636106e-05,0.0262136309286568,0.0265085691510562,0.0267357512953367,-3.587086488639896e-05
376695,0.06,0.06,0.05,-7.31,-7.29,-7.11,213.07,Stairs,2509.0,7.971303308090871e-06,3.985651654045435e-06,3.985651654045437e-06,-0.0108768433638899,-0.0108688720605819,-0.0107692307692307,-0.0001155838979673
379204,0.08,0.07,0.06,-23.11,-23.28,-23.61,212.62,Stairs,2509.0,7.971303308090875e-06,3.98565165404544e-06,3.985651654045435e-06,-0.0062973296133917,-0.0063730569948186,-0.0065763252291749,-0.000179354324432
381713,-0.08,-0.09,-0.09,28.29,28.17,28.01,212.12,Stairs,2509.0,-6.377042646472698e-05,-6.377042646472698e-05,-5.9784774810681545e-05,0.0204862495017935,0.0205061777600637,0.0205739338381825,-0.0001992825827022
384222,0.16,0.17,0.17,-26.57,-25.02,-23.46,211.69,Stairs,2509.0,9.565563969709048e-05,0.0001036269430051,0.0001036269430051,-0.0218652849740932,-0.0211996811478676,-0.0205141490633718,-0.0001713830211239
386731,0.11,0.11,0.11,21.43,21.24,21.04,211.11,Stairs,2509.0,-1.9928258270227185e-05,-2.3913909924272624e-05,-2.3913909924272624e-05,0.019131127939418,0.0184376245516141,0.0177361498605021,-0.0002311677959346
389240,-0.2,-0.2,-0.2,-6.6,-5.86,-5.22,210.74,Stairs,2509.0,-0.0001235552012754,-0.0001235552012754,-0.0001235552012754,-0.0111717815862893,-0.0108011159824631,-0.0104663212435233,-0.0001474691111996
391749,-0.01,-0.01,-0.01,54.27,54.24,54.2,210.74,Stairs,2509.0,7.57273814268633e-05,7.57273814268633e-05,7.57273814268633e-05,0.0242606616181745,0.023953766440813,0.0236827421283379,0.0
394258,-0.27,-0.27,-0.27,54.26,54.5,54.96,210.83,Stairs,2509.0,-0.0001036269430051,-0.0001036269430051,-0.0001036269430051,-3.985651654047475e-06,0.0001036269430051,0.0003029095257074,3.5870864886410286e-05
396767,-0.06,-0.06,-0.06,-27.68,-27.09,-26.37,211.11,Stairs,2509.0,8.369868473495417e-05,8.369868473495417e-05,8.369868473495417e-05,-0.0326584296532483,-0.0325189318453567,-0.0324153049023515,0.0001115982463132
399276,-0.13,-0.13,-0.13,64.53,64.7,64.87,211.42,Stairs,2509.0,-2.7899561578318056e-05,-2.7899561578318056e-05,-2.7899561578318056e-05,0.0367516939019529,0.036584296532483,0.0363650856915105,0.0001235552012753
401785,-0.04,-0.04,-0.04,-5.91,-5.24,-4.58,211.75,Stairs,2509.0,3.5870864886408924e-05,3.5870864886408924e-05,3.5870864886408924e-05,-0.028074930251096,-0.0278756476683937,-0.0276803507373455,0.0001315265045835
404294,-0.12,-0.12,-0.11,66.17,64.83,63.66,212.17,Stairs,2509.0,-3.1885213232363485e-05,-3.1885213232363485e-05,-2.7899561578318056e-05,0.0287285771223595,0.0279274611398963,0.027198086887206,0.0001673973694699
406803,-0.21,-0.21,-0.21,-61.35,-61.26,-61.21,212.56,Stairs,2509.0,-3.5870864886408924e-05,-3.5870864886408924e-05,-3.985651654045436e-05,-0.0508250298923874,-0.0502550817058589,-0.0497688322040653,0.0001554404145077
409312,-0.24,-0.24,-0.24,20.37,20.31,20.21,213.08,Stairs,2509.0,-1.1956954962136309e-05,-1.1956954962136309e-05,-1.1956954962136309e-05,0.0325707453168593,0.0325109605420486,0.0324511757672379,0.0002072538860103
411821,-0.22,-0.22,-0.22,9.93,9.33,8.71,213.46,Stairs,2509.0,7.97130330809087e-06,7.97130330809087e-06,7.97130330809087e-06,-0.0041610203268234,-0.0043762455161418,-0.0045834994021522,0.0001514547628537
414330,-0.31,-0.3,-0.29,80.27,80.08,79.98,213.92,Stairs,2509.0,-3.5870864886408924e-05,-3.1885213232363485e-05,-2.789956157831805e-05,0.0280350737345556,0.0281984854523714,0.0284057393383818,0.000183339976086
416839,-0.07,-0.07,-0.07,-34.46,-34.21,-33.94,214.48,Stairs,2509.0,9.565563969709048e-05,9.166998804304504e-05,8.768433638899959e-05,-0.0457273814268632,-0.0455520127540852,-0.0454045436428856,0.0002231964926265
419348,-0.14,-0.14,-0.14,17.99,17.7,17.41,215.09,Stairs,2509.0,-2.7899561578318056e-05,-2.7899561578318056e-05,-2.7899561578318056e-05,0.0209047429254683,0.0206895177361498,0.0204663212435233,0.0002431247508967
421857,-0.09,-0.08,-0.08,-2.63,-2.57,-2.49,215.68,Stairs,2509.0,1.992825827022719e-05,2.3913909924272624e-05,2.3913909924272624e-05,-0.0082184137106416,-0.0080789159027501,-0.0079314467915504,0.0002351534475886
424366,-0.25,-0.26,-0.27,45.43,45.2,44.84,215.88,Stairs,2509.0,-6.377042646472698e-05,-7.174172977281785e-05,-7.57273814268633e-05,0.0191550418493423,0.019039457951375,0.018864089278597,7.97130330809042e-05
426875,-0.11,-0.11,-0.11,-16.42,-16.82,-17.21,215.9,Stairs,2509.0,5.579912315663611e-05,5.978477481068155e-05,6.3770426464727e-05,-0.024651255480271,-0.0247190115583898,-0.0247309685133519,7.97130330809495e-06
429384,-0.05,-0.05,-0.05,-86.47,-86.76,-87.12,215.8,Stairs,2509.0,2.3913909924272617e-05,2.3913909924272617e-05,2.3913909924272617e-05,-0.0279194898365882,-0.0278756476683937,-0.0278636907134316,-3.98565165404521e-05
431893,-0.16,-0.16,-0.16,-7.58,-7.28,-7.11,215.53,Stairs,2509.0,-4.38421681944998e-05,-4.38421681944998e-05,-4.38421681944998e-05,0.0314428058987644,0.0316779593463531,0.0318891988840175,-0.0001076125946592
434402,-0.06,-0.06,-0.06,-40.86,-40.67,-40.26,215.29,Stairs,2509.0,3.985651654045436e-05,3.985651654045436e-05,3.985651654045436e-05,-0.0132642487046632,-0.0133080908728577,-0.0132124352331606,-9.56556396970941e-05
436911,-0.13,-0.14,-0.14,-7.15,-6.93,-6.62,214.94,Stairs,2509.0,-2.7899561578318056e-05,-3.18852132323635e-05,-3.18852132323635e-05,0.0134356317257871,0.0134475886807493,0.0134077321642088,-0.0001394978078915
439419,-0.12,-0.12,-0.12,-11.91,-12.1,-12.28,214.38,Stairs,2508.0,3.987240829346096e-06,7.974481658692193e-06,7.974481658692193e-06,-0.0018979266347687,-0.0020614035087719,-0.0022567783094098,-0.0002232854864433
441928,-0.08,-0.08,-0.08,-39.48,-39.32,-39.15,213.87,Stairs,2509.0,1.5942606616181743e-05,1.5942606616181743e-05,1.5942606616181743e-05,-0.0109884416102032,-0.0108489438023116,-0.01070944599442,-0.0002032682343563
444437,-0.22,-0.22,-0.22,-35.79,-35.47,-35.27,213.23,Stairs,2509.0,-5.579912315663611e-05,-5.579912315663611e-05,-5.579912315663611e-05,0.0014707054603427,0.0015344758868074,0.0015464328417696,-0.0002550817058589
446946,-0.17,-0.17,-0.17,46.4,46.08,45.76,212.79,Stairs,2509.0,1.992825827022718e-05,1.992825827022718e-05,1.992825827022718e-05,0.0327580709445994,0.0325029892387405,0.0322957353527301,-0.0001753686727779
449455,-0.17,-0.17,-0.17,18.24,18.4,18.4,212.7,Stairs,2509.0,0.0,0.0,0.0,-0.0112235950577919,-0.0110322837783977,-0.0109047429254683,-3.5870864886410286e-05
451964,-0.16,-0.16,-0.16,5.92,6.05,6.27,212.77,Stairs,2509.0,3.98565165404544e-06,3.98565165404544e-06,3.98565165404544e-06,-0.0049103228377839,-0.0049222797927461,-0.0048345954563571,2.7899561578326662e-05
454473,-0.11,-0.11,-0.11,44.21,44.27,44.36,213.02,Stairs,2509.0,1.9928258270227185e-05,1.9928258270227185e-05,1.9928258270227185e-05,0.0152610601833399,0.0152331606217616,0.015181347150259,9.964129135113592e-05
456982,-0.09,-0.09,-0.08,26.21,26.18,26.11,213.29,Stairs,2509.0,7.971303308090875e-06,7.971303308090875e-06,1.1956954962136309e-05,-0.0071741729772817,-0.0072100438421681,-0.0072738142686329,0.0001076125946592
459491,-0.07,-0.07,-0.07,-48.42,-48.24,-48.08,213.58,Stairs,2509.0,7.97130330809087e-06,7.97130330809087e-06,3.985651654045435e-06,-0.029744918294141,-0.0296612196094061,-0.029569549621363,0.0001155838979673
462000,-0.2,-0.2,-0.2,-61.98,-61.65,-61.51,213.92,Stairs,2509.0,-5.1813471502590674e-05,-5.1813471502590674e-05,-5.1813471502590674e-05,-0.0054045436428856,-0.0053447588680749,-0.005352730171383,0.0001355121562375
464509,-0.07,-0.07,-0.07,-60.76,-60.71,-60.79,214.33,Stairs,2509.0,5.1813471502590674e-05,5.1813471502590674e-05,5.1813471502590674e-05,0.0004862495017935,0.0003746512554802,0.0002869669190912,0.0001634117178158
467018,-0.19,-0.19,-0.19,72.98,72.92,72.93,214.78,Stairs,2509.0,-4.782781984854524e-05,-4.782781984854524e-05,-4.782781984854524e-05,0.0533041052212036,0.0532602630530091,0.0532961339178955,0.000179354324432
469527,-0.15,-0.15,-0.15,26.47,26.95,27.31,215.31,Stairs,2509.0,1.594260661618175e-05,1.594260661618175e-05,1.594260661618175e-05,-0.0185372658429653,-0.0183220406536468,-0.0181825428457552,0.0002112395376644
472036,-0.17,-0.17,-0.16,37.87,37.68,37.48,215.54,Stairs,2509.0,-7.97130330809088e-06,-7.97130330809088e-06,-3.98565165404544e-06,0.0045436428856117,0.0042766042247907,0.0040534077321642,9.166998804304096e-05
474545,-0.13,-0.13,-0.13,27.34,27.07,26.7,215.54,Stairs,2509.0,1.594260661618175e-05,1.594260661618175e-05,1.1956954962136309e-05,-0.0041968911917098,-0.0042287764049422,-0.0042965324830609,0.0
477054,-0.03,-0.03,-0.03,-10.34,-10.62,-10.84,215.4,Stairs,2509.0,3.985651654045436e-05,3.985651654045436e-05,3.985651654045436e-05,-0.0150179354324432,-0.0150219210840972,-0.0149621363092865,-5.579912315663067e-05
479563,-0.26,-0.27,-0.26,-4.6,-4.85,-5.11,215.1,Stairs,2509.0,-9.166998804304504e-05,-9.565563969709048e-05,-9.166998804304504e-05,0.002287764049422,0.0022997210043842,0.002283778397768,-0.0001195695496213
482072,-0.04,-0.04,-0.04,7.95,8.83,9.83,214.84,Stairs,2509.0,8.76843363889996e-05,9.166998804304504e-05,8.76843363889996e-05,0.005001992825827,0.0054523714627341,0.0059545635711438,-0.0001036269430051
484581,-0.06,-0.06,-0.06,-31.38,-31.39,-31.44,214.47,Stairs,2509.0,-7.971303308090871e-06,-7.971303308090871e-06,-7.971303308090871e-06,-0.0156755679553607,-0.0160302909525707,-0.0164487843762455,-0.0001474691111996
487090,-0.17,-0.18,-0.18,22.67,23.5,24.49,214.05,Stairs,2509.0,-4.384216819449981e-05,-4.782781984854524e-05,-4.782781984854524e-05,0.0215424471901155,0.0218772419290554,0.0222917497010761,-0.0001673973694699
489599,-0.03,-0.03,-0.03,-81.05,-81.05,-81.03,213.52,Stairs,2509.0,5.579912315663611e-05,5.9784774810681545e-05,5.9784774810681545e-05,-0.0413391789557592,-0.041669988043045,-0.0420565962534874,-0.0002112395376644
492108,-0.28,-0.29,-0.29,68.63,68.77,68.93,212.99,Stairs,2509.0,-9.964129135113592e-05,-0.0001036269430051,-0.0001036269430051,0.0596572339577521,0.0597130330809087,0.0597688322040653,-0.0002112395376644
494617,-0.2,-0.19,-0.19,51.33,51.38,51.05,212.75,Stairs,2509.0,3.18852132323635e-05,3.985651654045436e-05,3.985651654045436e-05,-0.0068951773614986,-0.006931048226385,-0.0071263451574332,-9.56556396970941e-05
497126,-0.21,-0.22,-0.21,-49.06,-49.11,-49.14,212.75,Stairs,2509.0,-3.985651654045429e-06,-1.1956954962136309e-05,-7.97130330809087e-06,-0.0400119569549621,-0.0400518134715025,-0.0399322439218812,0.0
499635,-0.19,-0.19,-0.19,75.1,74.96,74.79,212.9,Stairs,2509.0,7.97130330809087e-06,1.1956954962136309e-05,7.97130330809087e-06,0.0494858509366281,0.0494499800717417,0.049394180948585,5.9784774810683815e-05
502144,-0.13,-0.13,-0.13,18.64,19.17,19.65,213.15,Stairs,2509.0,2.3913909924272617e-05,2.3913909924272617e-05,2.3913909924272617e-05,-0.0225029892387405,-0.0222359505779194,-0.0219768832204065,9.964129135113592e-05
504653,-0.16,-0.15,-0.16,-74.31,-74.56,-74.8,213.5,Stairs,2509.0,-1.1956954962136309e-05,-7.97130330809087e-06,-1.1956954962136309e-05,-0.0370466321243523,-0.0373575129533678,-0.0376444798724591,0.0001394978078915
507162,-0.16,-0.16,-0.16,53.37,53.79,53.85,213.89,Stairs,2509.0,0.0,-3.98565165404544e-06,0.0,0.0508888003188521,0.0511558389796731,0.0512754085292945,0.0001554404145077
509671,-0.18,-0.18,-0.18,5.57,5.38,5.27,214.37,Stairs,2509.0,-7.97130330809087e-06,-7.97130330809087e-06,-7.97130330809087e-06,-0.0190514149063371,-0.0192945396572339,-0.0193622957353527,0.0001913112793941
512180,-0.02,-0.02,-0.02,2.29,2.55,2.95,214.89,Stairs,2509.0,6.377042646472698e-05,6.377042646472698e-05,6.377042646472698e-05,-0.0013072937425269,-0.0011279394180948,-0.0009246711837385,0.0002072538860103
514689,0.04,0.05,0.05,-71.87,-71.33,-70.9,215.5,Stairs,2509.0,2.3913909924272617e-05,2.7899561578318056e-05,2.7899561578318056e-05,-0.0295575926664009,-0.0294459944200876,-0.0294340374651255,0.0002431247508967
517198,0.1,0.1,0.1,-25.09,-24.89,-24.73,215.77,Stairs,2509.0,2.391390992427262e-05,1.9928258270227185e-05,1.9928258270227185e-05,0.0186448784376245,0.018509366281387,0.0184017536867277,0.0001076125946592
519707,0.07,0.07,0.07,-1.27,-1.82,-2.28,215.8,Stairs,2509.0,-1.1956954962136309e-05,-1.1956954962136309e-05,-1.1956954962136309e-05,0.0094938222399362,0.0091948983658828,0.008947787963332,1.1956954962136764e-05
522216,0.1,0.11,0.1,31.12,31.13,31.11,215.63,Stairs,2509.0,1.1956954962136309e-05,1.5942606616181743e-05,1.1956954962136309e-05,0.0129095257074531,0.0131327222000797,0.0133080908728577,-6.775607811877876e-05
524725,-0.1,-0.1,-0.11,2.29,2.16,1.85,215.22,Stairs,2509.0,-7.971303308090873e-05,-8.369868473495417e-05,-8.369868473495417e-05,-0.0114906337186129,-0.0115464328417696,-0.0116620167397369,-0.0001634117178158
527234,-0.14,-0.13,-0.13,40.51,40.18,39.75,214.87,Stairs,2509.0,-1.594260661618175e-05,-1.1956954962136309e-05,-7.971303308090875e-06,0.0152331606217616,0.0151534475886807,0.0151056197688322,-0.0001394978078915
529743,-0.05,-0.04,-0.04,-47.95,-48.08,-48.18,214.41,Stairs,2509.0,3.587086488640893e-05,3.5870864886408924e-05,3.5870864886408924e-05,-0.0352570745316859,-0.035177361498605,-0.0350458349940215,-0.000183339976086
532252,-0.05,-0.05,-0.05,-21.09,-21.63,-22.24,213.99,Stairs,2509.0,0.0,-3.985651654045437e-06,-3.985651654045437e-06,0.010705460342766,0.0105420486249501,0.0103387803905938,-0.0001673973694699
534761,0.02,0.03,0.03,-6.73,-6.53,-6.34,213.55,Stairs,2509.0,2.7899561578318056e-05,3.188521323236349e-05,3.188521323236349e-05,0.0057233957752092,0.0060183339976086,0.0063371861299322,-0.0001753686727779
537270,0.01,0.01,0.01,-14.02,-13.52,-13.04,213.12,Stairs,2509.0,-3.9856516540454365e-06,-7.971303308090871e-06,-7.971303308090871e-06,-0.0029055400557991,-0.0027859705061777,-0.0026703866082104,-0.0001713830211239
539779,-0.17,-0.17,-0.17,59.65,59.84,60.05,212.76,Stairs,2509.0,-7.174172977281786e-05,-7.174172977281786e-05,-7.174172977281786e-05,0.0293622957353527,0.0292387405340773,0.029131127939418,-0.0001434834595456
542288,-0.15,-0.15,-0.16,7.17,7.15,7.17,212.6,Stairs,2509.0,7.97130330809088e-06,7.97130330809088e-06,3.98565165404544e-06,-0.0209166998804304,-0.0210003985651654,-0.0210761259465922,-6.377042646472563e-05
544797,-0.09,-0.09,-0.09,-50.61,-50.24,-49.87,212.61,Stairs,2509.0,2.3913909924272617e-05,2.3913909924272617e-05,2.7899561578318056e-05,-0.0230290952570745,-0.0228736548425667,-0.0227341570346751,3.9856516540531394e-06
547306,-0.09,-0.09,-0.09,-17.18,-17.21,-17.3,212.8,Stairs,2509.0,0.0,0.0,0.0,0.0133240334794738,0.013164607413312,0.0129812674372259,7.572738142686239e-05
552324,-0.09,-0.09,-0.09,-16.48,-15.54,-14.68,213.45,Stairs,5018.0,0.0,0.0,0.0,0.0001394978078915,0.0003328019131127,0.0005221203666799,0.0001295336787564
554833,-0.11,-0.12,-0.12,34.96,35.01,35.02,213.87,Stairs,2509.0,-7.971303308090875e-06,-1.1956954962136309e-05,-1.1956954962136309e-05,0.0205021921084097,0.0201474691111996,0.0198086887206058,0.0001673973694699
557342,-0.12,-0.12,-0.12,-1.77,-1.85,-1.98,214.26,Stairs,2509.0,-3.985651654045435e-06,0.0,0.0,-0.0146392985253088,-0.0146911119968114,-0.0147469111199681,0.0001554404145077
559851,-0.1,-0.1,-0.1,-38.21,-37.82,-37.29,214.77,Stairs,2509.0,7.97130330809087e-06,7.97130330809087e-06,7.97130330809087e-06,-0.0145237146273415,-0.0143363889996014,-0.0140733359904344,0.0002032682343563
562360,-0.17,-0.17,-0.17,20.23,20.79,21.29,215.3,Stairs,2509.0,-2.7899561578318056e-05,-2.7899561578318056e-05,-2.7899561578318056e-05,0.0232921482662415,0.0233599043443603,0.0233479473893981,0.0002112395376644
567378,-0.16,-0.16,-0.16,-59.19,-59.63,-60.08,215.32,Stairs,5018.0,1.99282582702272e-06,1.99282582702272e-06,1.99282582702272e-06,-0.0158270227182144,-0.0160263053009167,-0.0162156237544838,3.985651654041811e-06
569887,-0.28,-0.27,-0.27,5.44,5.88,6.26,215.0,Stairs,2509.0,-4.782781984854525e-05,-4.384216819449981e-05,-4.384216819449981e-05,0.0257592666400956,0.0261100039856516,0.0264408130729374,-0.0001275408529294
572396,-0.09,-0.08,-0.08,-36.7,-36.53,-36.43,214.69,Stairs,2509.0,7.572738142686331e-05,7.57273814268633e-05,7.57273814268633e-05,-0.0167955360701474,-0.0169031486648067,-0.0170147469111199,-0.0001235552012754
574905,-0.28,-0.27,-0.27,-15.23,-14.36,-13.59,214.33,Stairs,2509.0,-7.572738142686331e-05,-7.57273814268633e-05,-7.57273814268633e-05,0.0085571941012355,0.0088361897170187,0.0091032283778397,-0.0001434834595456
577414,-0.12,-0.12,-0.12,9.5,9.64,9.74,213.82,Stairs,2509.0,6.3770426464727e-05,5.978477481068155e-05,5.978477481068155e-05,0.0098565165404543,0.009565563969709,0.009298525308888,-0.0002032682343563
582432,-0.26,-0.26,-0.26,-17.89,-17.88,-17.9,212.68,Stairs,5018.0,-2.7899561578318056e-05,-2.7899561578318056e-05,-2.7899561578318056e-05,-0.0054583499402152,-0.0054842566759665,-0.0055081705858907,-0.0002271821442805
584941,-0.13,-0.13,-0.13,41.98,42.46,42.96,212.37,Stairs,2509.0,5.1813471502590674e-05,5.1813471502590674e-05,5.1813471502590674e-05,0.02386209645277,0.0240494220805101,0.0242566759665205,-0.0001235552012754
587450,-0.12,-0.12,-0.12,96.68,96.5,96.37,212.34,Stairs,2509.0,3.98565165404544e-06,3.98565165404544e-06,3.98565165404544e-06,0.0218015145476285,0.0215384615384615,0.0212873654842566,-1.1956954962136764e-05
589958,-0.19,-0.19,-0.19,-13.37,-13.39,-13.4,212.44,Stairs,2508.0,-2.791068580542265e-05,-2.791068580542265e-05,-2.791068580542265e-05,-0.0438795853269537,-0.0438157894736842,-0.043767942583732,3.987240829345866e-05
592467,-0.16,-0.16,-0.16,-40.4,-40.27,-40.13,212.69,Stairs,2509.0,1.1956954962136309e-05,1.1956954962136309e-05,1.1956954962136309e-05,-0.0107732164208848,-0.0107134316460741,-0.0106536468712634,9.964129135113592e-05
597485,-0.23,-0.23,-0.23,17.08,17.1,17.08,213.35,Stairs,5018.0,-1.3949780789159028e-05,-1.3949780789159028e-05,-1.3949780789159028e-05,0.0114547628537265,0.0114328417696293,0.0114009565563969,0.0001315265045834
599994,-0.18,-0.18,-0.19,-6.66,-6.54,-6.45,213.77,Stairs,2509.0,1.992825827022719e-05,1.992825827022719e-05,1.594260661618175e-05,-0.0094619370267038,-0.0094220805101634,-0.0093782383419689,0.0001673973694699
602503,-0.22,-0.21,-0.21,-1.29,-1.36,-1.45,214.16,Stairs,2509.0,-1.594260661618175e-05,-1.1956954962136309e-05,-7.97130330809087e-06,0.0021402949382223,0.0020645675567955,0.0019928258270227,0.0001554404145077
605012,-0.03,-0.03,-0.03,-79.72,-79.38,-79.06,214.69,Stairs,2509.0,7.57273814268633e-05,7.174172977281785e-05,7.174172977281785e-05,-0.0312594659226783,-0.0310960542048624,-0.0309326424870466,0.0002112395376644
607521,-0.4,-0.4,-0.39,28.62,28.31,28.06,215.02,Stairs,2509.0,-0.0001474691111996,-0.0001474691111996,-0.0001434834595456,0.0431805500199282,0.0429214826624153,0.0426943005181347,0.0001315265045835
612539,0.04,0.04,0.04,-44.65,-44.31,-43.93,215.06,Stairs,5018.0,8.76843363889996e-05,8.76843363889996e-05,8.569151056197688e-05,-0.0146014348345954,-0.0144719011558389,-0.0143463531287365,7.971303308089287e-06
615048,0.04,0.04,0.03,31.06,30.95,30.88,214.84,Stairs,2509.0,0.0,0.0,-3.985651654045437e-06,0.0301753686727779,0.0299960143483459,0.0298166600239139,-8.768433638899914e-05
617557,0.07,0.07,0.07,-11.11,-11.65,-12.08,214.55,Stairs,2509.0,1.1956954962136312e-05,1.1956954962136312e-05,1.594260661618175e-05,-0.0168074930251096,-0.0169788760462335,-0.0171223595057791,-0.0001155838979673
620066,0.15,0.15,0.15,69.95,69.68,69.46,214.21,Stairs,2509.0,3.1885213232363485e-05,3.1885213232363485e-05,3.1885213232363485e-05,0.0323076923076923,0.0324153049023515,0.0324990035870864,-0.0001355121562375
622575,-0.03,-0.03,-0.03,-20.97,-20.98,-20.95,213.76,Stairs,2509.0,-7.174172977281785e-05,-7.174172977281785e-05,-7.174172977281785e-05,-0.0362375448385811,-0.0361339178955759,-0.0360342766042247,-0.000179354324432
627593,0.12,0.12,0.12,12.86,13.32,13.69,212.62,Stairs,5018.0,2.9892387405340773e-05,2.9892387405340773e-05,2.9892387405340773e-05,0.0067417297728178,0.0068353925866879,0.0069031486648066,-0.0002271821442805
630102,0.22,0.22,0.22,75.81,75.98,76.13,212.18,Stairs,2509.0,3.985651654045436e-05,3.985651654045436e-05,3.985651654045436e-05,0.025089677162216,0.0249740932642487,0.0248864089278597,-0.0001753686727779
632611,-0.01,-0.01,-0.01,-15.02,-15.01,-15.08,212.09,Stairs,2509.0,-9.166998804304504e-05,-9.166998804304504e-05,-9.166998804304504e-05,-0.0362016739736947,-0.0362654444001594,-0.0363531287365484,-3.5870864886410286e-05
635120,0.04,0.04,0.05,10.31,10.5,10.63,212.2,Stairs,2509.0,1.9928258270227185e-05,1.9928258270227185e-05,2.391390992427262e-05,0.010095655639697,0.0101673973694699,0.0102471104025508,4.384216819449391e-05
637629,0.05,0.05,0.05,-6.0,-6.7,-7.31,212.51,Stairs,2509.0,3.985651654045437e-06,3.985651654045437e-06,0.0,-0.0065005978477481,-0.0068553208449581,-0.0071502590673575,0.0001235552012754
640138,0.08,0.08,0.08,-5.6,-5.05,-4.53,212.83,Stairs,2509.0,1.1956954962136309e-05,1.1956954962136309e-05,1.1956954962136309e-05,0.0001594260661618,0.0006576325229174,0.0011080111598246,0.0001275408529294
642647,-0.08,-0.09,-0.08,-7.85,-7.64,-7.36,213.25,Stairs,2509.0,-6.377042646472698e-05,-6.775607811877242e-05,-6.377042646472698e-05,-0.0008967716221602,-0.0010322837783977,-0.0011279394180948,0.0001673973694699
645156,-0.09,-0.09,-0.09,42.1,41.87,41.6,213.77,Stairs,2509.0,-3.985651654045435e-06,0.0,-3.985651654045435e-06,0.0199083300119569,0.0197329613391789,0.0195137504982064,0.0002072538860103
647665,-0.13,-0.13,-0.12,-42.74,-42.76,-42.82,214.21,Stairs,2509.0,-1.594260661618175e-05,-1.594260661618175e-05,-1.1956954962136309e-05,-0.0338142686329214,-0.0337305699481865,-0.0336468712634515,0.0001753686727779
650174,-0.18,-0.18,-0.18,28.16,27.66,27.28,214.85,Stairs,2509.0,-1.992825827022718e-05,-1.992825827022718e-05,-2.3913909924272617e-05,0.0282582702271821,0.0280669589477879,0.0279394180948585,0.0002550817058589
652683,-0.13,-0.13,-0.13,-95.51,-95.43,-95.25,215.05,Stairs,2509.0,1.992825827022718e-05,1.992825827022718e-05,1.992825827022718e-05,-0.0492905540055799,-0.0490593862096452,-0.0488361897170187,7.971303308091553e-05
655192,-0.08,-0.09,-0.09,-46.61,-46.88,-47.11,215.01,Stairs,2509.0,1.9928258270227185e-05,1.594260661618175e-05,1.594260661618175e-05,0.0194898365882821,0.0193503387803905,0.0191869270625747,-1.59426066161899e-05
657701,-0.11,-0.11,-0.11,27.05,26.42,25.88,214.86,Stairs,2509.0,-1.1956954962136309e-05,-7.971303308090875e-06,-7.971303308090875e-06,0.0293583100836986,0.029214826624153,0.0290912714228776,-5.9784774810672485e-05
660210,-0.24,-0.24,-0.24,-87.85,-87.81,-87.82,214.49,Stairs,2509.0,-5.1813471502590674e-05,-5.1813471502590674e-05,-5.1813471502590674e-05,-0.045795137504982,-0.045528098844161,-0.0453168593064966,-0.0001474691111996
662719,-0.11,-0.1,-0.11,4.15,4.02,3.82,214.23,Stairs,2509.0,5.1813471502590674e-05,5.5799123156636106e-05,5.1813471502590674e-05,0.036667995217218,0.0366002391390992,0.0365245117576723,-0.0001036269430051
665228,-0.1,-0.1,-0.1,1.98,1.63,1.23,213.73,Stairs,2509.0,3.985651654045435e-06,0.0,3.985651654045435e-06,-0.0008648864089278,-0.0009525707453168,-0.0010322837783977,-0.0001992825827022
667737,-0.11,-0.12,-0.11,3.42,3.01,2.52,213.22,Stairs,2509.0,-3.985651654045435e-06,-7.97130330809087e-06,-3.985651654045435e-06,0.0005739338381825,0.0005500199282582,0.0005141490633718,-0.0002032682343563
670246,-0.09,-0.09,-0.08,-50.56,-50.6,-50.59,212.62,Stairs,2509.0,7.971303308090875e-06,1.1956954962136309e-05,1.1956954962136309e-05,-0.0215145476285372,-0.0213670785173375,-0.0211677959346353,-0.0002391390992427
672755,-0.36,-0.36,-0.36,16.27,16.08,15.88,212.3,Stairs,2509.0,-0.0001076125946592,-0.0001076125946592,-0.0001115982463132,0.0266361100039856,0.0265763252291749,0.02649262654444,-0.0001275408529294
675264,-0.08,-0.08,-0.07,60.98,60.8,60.68,212.27,Stairs,2509.0,0.0001115982463132,0.0001115982463132,0.0001155838979673,0.0178198485452371,0.0178238341968911,0.0178557194101235,-1.1956954962136764e-05
677773,-0.15,-0.15,-0.15,-45.08,-45.04,-44.9,212.35,Stairs,2509.0,-2.7899561578318053e-05,-2.7899561578318053e-05,-3.1885213232363485e-05,-0.0422718214428059,-0.0421841371064169,-0.0420805101634117,3.188521323235715e-05
680282,-0.16,-0.16,-0.16,9.24,9.52,9.93,212.66,Stairs,2509.0,-3.98565165404544e-06,-3.98565165404544e-06,-3.98565165404544e-06,0.0216500597847748,0.0217457154244719,0.0218533280191311,0.0001235552012754
682791,-0.15,-0.15,-0.15,6.75,6.98,7.34,212.96,Stairs,2509.0,3.98565165404544e-06,3.98565165404544e-06,3.98565165404544e-06,-0.0009924272618573,-0.0010123555201275,-0.0010322837783977,0.0001195695496213
685300,-0.04,-0.04,-0.04,-25.65,-25.47,-25.36,213.36,Stairs,2509.0,4.38421681944998e-05,4.38421681944998e-05,4.38421681944998e-05,-0.0129135113591072,-0.0129334396173774,-0.0130330809087285,0.0001594260661618
687809,-0.26,-0.26,-0.26,45.52,45.95,46.49,213.82,Stairs,2509.0,-8.76843363889996e-05,-8.76843363889996e-05,-8.76843363889996e-05,0.0283658828218413,0.0284655241131925,0.0286369071343164,0.000183339976086
690318,-0.15,-0.14,-0.15,15.47,15.27,15.15,214.35,Stairs,2509.0,4.384216819449981e-05,4.782781984854524e-05,4.384216819449981e-05,-0.0119768832204065,-0.0122279792746114,-0.0124910322837784,0.0002112395376644
692827,-0.32,-0.32,-0.33,-1.98,-1.95,-1.97,214.82,Stairs,2509.0,-6.775607811877243e-05,-7.174172977281785e-05,-7.174172977281786e-05,-0.0069549621363092,-0.0068632921482662,-0.0068234356317257,0.0001873256277401
695336,-0.02,-0.02,-0.02,-50.52,-51.21,-51.82,214.95,Stairs,2509.0,0.0001195695496213,0.0001195695496213,0.0001235552012754,-0.0193463531287365,-0.0196333200478278,-0.0198684734954165,5.181347150258886e-05
697845,-0.36,-0.36,-0.36,84.48,84.83,85.05,214.9,Stairs,2509.0,-0.0001355121562375,-0.0001355121562375,-0.0001355121562375,0.0538062973296133,0.0542208051016341,0.0545516141889198,-1.9928258270220385e-05
700354,-0.19,-0.2,-0.2,-20.24,-20.18,-20.13,214.71,Stairs,2509.0,6.775607811877242e-05,6.377042646472697e-05,6.377042646472697e-05,-0.0417377441211638,-0.0418533280191311,-0.0419210840972499,-7.572738142686239e-05
702863,-0.23,-0.23,-0.23,-57.45,-56.95,-56.58,214.37,Stairs,2509.0,-1.594260661618175e-05,-1.1956954962136309e-05,-1.1956954962136309e-05,-0.014830609804703,-0.014655241131925,-0.0145277002789956,-0.0001355121562375
705372,-0.11,-0.12,-0.11,-76.79,-77.05,-77.24,213.97,Stairs,2509.0,4.782781984854524e-05,4.384216819449981e-05,4.782781984854524e-05,-0.0077082502989238,-0.0080111598246313,-0.0082343563172578,-0.0001594260661618
707881,-0.13,-0.13,-0.13,-21.74,-21.52,-21.37,213.48,Stairs,2509.0,-7.971303308090875e-06,-3.98565165404544e-06,-7.971303308090875e-06,0.0219410123555201,0.0221323236349143,0.0222678357911518,-0.0001952969310482
710390,-0.08,-0.08,-0.08,10.67,10.34,10.12,213.09,Stairs,2509.0,1.9928258270227185e-05,1.9928258270227185e-05,1.9928258270227185e-05,0.0129174970107612,0.0126982861697887,0.012550817058589,-0.0001554404145077
712899,-0.18,-0.18,-0.18,-1.84,-1.73,-1.7,212.59,Stairs,2509.0,-3.985651654045436e-05,-3.985651654045436e-05,-3.985651654045436e-05,-0.0049860502192108,-0.0048106815464328,-0.0047110402550817,-0.0001992825827022
715408,-0.14,-0.14,-0.14,24.44,24.48,24.59,212.13,Stairs,2509.0,1.594260661618174e-05,1.594260661618174e-05,1.594260661618174e-05,0.0104742925468314,0.010446392985253,0.0104782781984854,-0.000183339976086
717917,-0.0,-0.01,-0.01,-7.64,-7.11,-6.56,211.77,Stairs,2509.0,5.579912315663611e-05,5.1813471502590674e-05,5.1813471502590674e-05,-0.0127859705061777,-0.0125906735751295,-0.0124153049023515,-0.0001434834595456
720425,-0.07,-0.08,-0.08,3.85,3.98,4.14,211.55,Stairs,2508.0,-2.791068580542265e-05,-2.791068580542265e-05,-2.791068580542265e-05,0.0045813397129186,0.0044218500797448,0.0042663476874003,-8.771929824561358e-05
722934,-0.09,-0.09,-0.09,-8.81,-8.3,-7.77,211.6,Stairs,2509.0,-7.97130330809087e-06,-3.985651654045435e-06,-3.985651654045435e-06,-0.0050458349940215,-0.0048943802311677,-0.0047469111199681,1.9928258270220385e-05
725443,-0.18,-0.18,-0.18,36.21,35.85,35.47,211.73,Stairs,2509.0,-3.5870864886408924e-05,-3.5870864886408924e-05,-3.5870864886408924e-05,0.0179434037465125,0.0175966520526106,0.0172339577520924,5.181347150258886e-05
727952,-0.24,-0.23,-0.24,-26.11,-26.11,-26.06,211.99,Stairs,2509.0,-2.3913909924272617e-05,-1.992825827022719e-05,-2.3913909924272617e-05,-0.0248385811080111,-0.0246950976484655,-0.0245237146273415,0.0001036269430051
730461,-0.25,-0.25,-0.25,-58.44,-58.46,-58.27,212.37,Stairs,2509.0,-3.98565165404544e-06,-7.97130330809087e-06,-3.98565165404544e-06,-0.0128856117975288,-0.0128935831008369,-0.0128377839776803,0.0001514547628537
732970,-0.23,-0.23,-0.23,73.62,73.34,72.92,212.78,Stairs,2509.0,7.97130330809087e-06,7.97130330809087e-06,7.97130330809087e-06,0.052634515743324,0.0525308888003188,0.052287764049422,0.0001634117178158
735479,-0.24,-0.24,-0.24,-20.23,-20.98,-21.73,213.14,Stairs,2509.0,-3.985651654045429e-06,-3.985651654045429e-06,-3.985651654045429e-06,-0.0374053407732164,-0.0375926664009565,-0.03772419290554,0.0001434834595456
737987,-0.29,-0.29,-0.29,-6.02,-6.9,-7.73,213.62,Stairs,2508.0,-1.993620414673046e-05,-1.993620414673046e-05,-1.993620414673046e-05,0.0056658692185007,0.0056140350877192,0.0055821371610845,0.0001913875598086
740495,-0.25,-0.25,-0.26,32.63,32.76,32.94,214.13,Stairs,2508.0,1.594896331738436e-05,1.594896331738436e-05,1.1961722488038266e-05,0.0154106858054226,0.0158133971291866,0.0162161084529505,0.0002033492822966
743004,-0.14,-0.14,-0.14,-3.43,-3.58,-3.55,214.75,Stairs,2509.0,4.38421681944998e-05,4.38421681944998e-05,4.782781984854524e-05,-0.0143722598644878,-0.0144838581108011,-0.0145436428856117,0.0002471104025508
745513,-0.05,-0.05,-0.06,46.4,46.61,46.69,215.12,Stairs,2509.0,3.587086488640893e-05,3.587086488640893e-05,3.18852132323635e-05,0.0198605021921084,0.020003985651654,0.0200239139099242,0.0001474691111996
748022,-0.13,-0.13,-0.13,-68.29,-68.68,-68.95,215.16,Stairs,2509.0,-3.188521323236349e-05,-3.188521323236349e-05,-2.7899561578318056e-05,-0.0457114388202471,-0.0459505779194898,-0.0460900757273814,1.5942606616178575e-05
750531,-0.16,-0.15,-0.15,-38.37,-38.69,-38.98,214.98,Stairs,2509.0,-1.1956954962136309e-05,-7.97130330809087e-06,-7.97130330809087e-06,0.0119250697489039,0.0119529693104822,0.0119449980071741,-7.174172977282057e-05
753040,-0.22,-0.23,-0.23,-12.17,-11.26,-10.04,214.62,Stairs,2509.0,-2.3913909924272617e-05,-3.18852132323635e-05,-3.18852132323635e-05,0.010442407333599,0.0109326424870466,0.0115344758868074,-0.0001434834595456
755549,-0.35,-0.35,-0.35,-18.17,-18.95,-19.7,214.24,Stairs,2509.0,-5.181347150259067e-05,-4.782781984854522e-05,-4.782781984854522e-05,-0.0023913909924272,-0.0030649661219609,-0.0038501394978078,-0.0001514547628537
758058,-0.14,-0.14,-0.15,-51.66,-52.39,-53.21,213.72,Stairs,2509.0,8.369868473495415e-05,8.369868473495415e-05,7.971303308090873e-05,-0.0133479473893981,-0.0133280191311279,-0.0133559186927062,-0.0002072538860103
760567,-0.29,-0.28,-0.28,37.34,36.95,36.47,213.23,Stairs,2509.0,-5.978477481068153e-05,-5.579912315663611e-05,-5.181347150259069e-05,0.0354722997210043,0.0356078118772419,0.0357433240334794,-0.0001952969310482
763076,-0.11,-0.11,-0.11,-69.92,-69.99,-70.02,212.61,Stairs,2509.0,7.174172977281785e-05,6.775607811877243e-05,6.775607811877243e-05,-0.0427500996412913,-0.0426225587883618,-0.0424432044639298,-0.0002471104025508
765585,-0.38,-0.38,-0.38,65.44,65.6,65.76,212.19,Stairs,2509.0,-0.0001076125946592,-0.0001076125946592,-0.0001076125946592,0.053949780789159,0.054041450777202,0.0541171781586289,-0.0001673973694699
768093,-0.28,-0.28,-0.28,31.27,31.02,30.79,212.08,Stairs,2508.0,3.987240829346092e-05,3.987240829346092e-05,3.987240829346092e-05,-0.0136244019138755,-0.0137878787878787,-0.0139433811802232,-4.3859649122801126e-05
770602,-0.11,-0.11,-0.11,-55.8,-55.6,-55.31,212.18,Stairs,2509.0,6.775607811877243e-05,6.775607811877243e-05,6.775607811877243e-05,-0.0347030689517736,-0.0345237146273415,-0.0343164607413312,3.98565165404521e-05
773111,-0.23,-0.23,-0.24,36.53,36.76,36.9,212.58,Stairs,2509.0,-4.782781984854524e-05,-4.782781984854524e-05,-5.1813471502590674e-05,0.0367995217218015,0.0368114786767636,0.0367516939019529,0.0001594260661618
775620,-0.27,-0.26,-0.26,-41.6,-41.53,-41.58,212.74,Stairs,2509.0,-1.594260661618175e-05,-1.1956954962136309e-05,-7.97130330809088e-06,-0.0311398963730569,-0.0312036667995217,-0.0312793941809485,6.377042646472563e-05
778129,-0.28,-0.28,-0.28,71.33,71.54,71.69,213.01,Stairs,2509.0,-3.98565165404544e-06,-7.97130330809088e-06,-7.97130330809088e-06,0.0450099641291351,0.0450657632522917,0.0451454762853726,0.0001076125946592
780638,-0.17,-0.17,-0.17,46.0,45.96,45.94,213.35,Stairs,2509.0,4.384216819449981e-05,4.384216819449981e-05,4.384216819449981e-05,-0.010095655639697,-0.0101952969310482,-0.0102630530091669,0.0001355121562375
783146,-0.12,-0.12,-0.12,-53.38,-53.02,-52.61,213.76,Stairs,2508.0,1.993620414673047e-05,1.993620414673047e-05,1.993620414673047e-05,-0.0396251993620414,-0.0394657097288676,-0.0392942583732057,0.0001634768740031
785655,-0.2,-0.2,-0.2,109.65,109.66,109.72,214.37,Stairs,2509.0,-3.18852132323635e-05,-3.18852132323635e-05,-3.18852132323635e-05,0.0649780789159027,0.0648385811080111,0.0646990833001195,0.0002431247508967
788164,0.08,0.08,0.07,-36.78,-37.29,-37.82,214.83,Stairs,2509.0,0.0001115982463132,0.0001115982463132,0.0001076125946592,-0.0583618971701873,-0.0585691510561976,-0.0588043045037863,0.000183339976086
790673,0.08,0.08,0.08,6.53,5.81,5.3,214.97,Stairs,2509.0,0.0,0.0,3.985651654045435e-06,0.0172618573136707,0.0171781586289358,0.0171861299322439,5.579912315663067e-05
793182,0.16,0.16,0.16,-78.37,-77.9,-77.56,214.91,Stairs,2509.0,3.188521323236349e-05,3.188521323236349e-05,3.188521323236349e-05,-0.0338381825428457,-0.0333638899960143,-0.0330251096054204,-2.3913909924273525e-05
795691,0.17,0.17,0.16,-30.31,-30.77,-31.23,214.58,Stairs,2509.0,3.98565165404544e-06,3.98565165404544e-06,0.0,0.0191550418493423,0.0187843762455161,0.0184655241131925,-0.0001315265045834
798200,0.06,0.06,0.06,16.28,16.44,16.5,214.26,Stairs,2509.0,-4.384216819449981e-05,-4.384216819449981e-05,-3.985651654045436e-05,0.0185691510561976,0.0188162614587485,0.0190235153447588,-0.0001275408529294
800709,0.11,0.1,0.1,-43.9,-43.98,-43.95,213.89,Stairs,2509.0,1.9928258270227185e-05,1.594260661618175e-05,1.594260661618175e-05,-0.0239856516540454,-0.0240813072937425,-0.0240932642487046,-0.0001474691111996
803218,-0.07,-0.07,-0.07,-7.4,-7.63,-7.85,213.45,Stairs,2509.0,-7.174172977281785e-05,-6.775607811877243e-05,-6.775607811877243e-05,0.0145476285372658,0.0144878437624551,0.014388202471104,-0.0001753686727779
805727,0.08,0.08,0.08,-62.98,-62.66,-62.35,212.99,Stairs,2509.0,5.978477481068155e-05,5.978477481068155e-05,5.978477481068155e-05,-0.0221522518931845,-0.021933041052212,-0.0217218015145476,-0.000183339976086
808236,-0.2,-0.2,-0.21,17.91,18.69,19.33,212.43,Stairs,2509.0,-0.0001115982463132,-0.0001115982463132,-0.0001155838979673,0.0322399362295735,0.0324232762056596,0.0325548027102431,-0.0002231964926265
810745,0.02,0.02,0.02,4.11,3.77,3.36,212.05,Stairs,2509.0,8.76843363889996e-05,8.76843363889996e-05,9.166998804304504e-05,-0.0055001992825827,-0.0059465922678357,-0.0063650856915105,-0.0001514547628537
813253,-0.25,-0.26,-0.26,-39.82,-39.92,-40.02,211.99,Stairs,2508.0,-0.0001076555023923,-0.0001116427432216,-0.0001116427432216,-0.0175159489633173,-0.017420255183413,-0.0172966507177033,-2.392344497607746e-05
815762,-0.14,-0.14,-0.14,36.79,36.13,35.53,212.03,Stairs,2509.0,4.38421681944998e-05,4.782781984854524e-05,4.782781984854524e-05,0.030534077321642,0.0303108808290155,0.0301115982463132,1.5942606616178575e-05
818271,-0.42,-0.42,-0.41,-70.93,-70.79,-70.53,212.29,Stairs,2509.0,-0.0001115982463132,-0.0001115982463132,-0.0001076125946592,-0.0429334396173774,-0.0426145874850538,-0.0422718214428059,0.0001036269430051
820780,-0.31,-0.31,-0.31,54.31,54.66,55.19,212.6,Stairs,2509.0,4.38421681944998e-05,4.38421681944998e-05,3.985651654045436e-05,0.049916301315265,0.05,0.0501076125946592,0.0001235552012754
823289,-0.29,-0.3,-0.29,28.5,28.92,29.24,213.02,Stairs,2509.0,7.97130330809088e-06,3.98565165404544e-06,7.97130330809088e-06,-0.0102869669190912,-0.0102590673575129,-0.0103427660422479,0.0001673973694699
825798,-0.14,-0.14,-0.14,-71.49,-71.72,-72.03,213.51,Stairs,2509.0,5.978477481068153e-05,6.377042646472697e-05,5.978477481068153e-05,-0.0398525308888003,-0.0401115982463132,-0.0403626943005181,0.0001952969310482
828306,-0.29,-0.29,-0.28,26.49,26.49,26.38,214.04,Stairs,2508.0,-5.9808612440191376e-05,-5.9808612440191376e-05,-5.58213716108453e-05,0.039066985645933,0.0391586921850079,0.0392384370015948,0.0002113237639553
830815,-0.3,-0.29,-0.29,63.78,64.41,64.85,214.61,Stairs,2509.0,-3.98565165404544e-06,0.0,-3.985651654045418e-06,0.0148624950179354,0.0151135910721402,0.0153328019131127,0.0002271821442805
833324,-0.13,-0.13,-0.13,-84.3,-83.33,-82.24,214.83,Stairs,2509.0,6.775607811877242e-05,6.377042646472697e-05,6.377042646472697e-05,-0.0590195296931048,-0.0588840175368672,-0.0586249501793543,8.768433638899914e-05
835833,-0.22,-0.22,-0.22,-77.76,-77.53,-77.27,214.78,Stairs,2509.0,-3.5870864886408924e-05,-3.5870864886408924e-05,-3.5870864886408924e-05,0.0026066161817457,0.0023116779593463,0.0019808688720605,-1.992825827023171e-05
838342,-0.41,-0.42,-0.43,89.61,89.17,88.56,214.58,Stairs,2509.0,-7.572738142686328e-05,-7.971303308090873e-05,-8.369868473495416e-05,0.0667078517337584,0.0664408130729374,0.0660940613790354,-7.97130330809042e-05
840851,-0.12,-0.11,-0.11,-57.42,-57.05,-56.8,214.29,Stairs,2509.0,0.0001155838979673,0.0001235552012754,0.0001275408529294,-0.05860103626943,-0.0582781984854523,-0.0579354324432044,-0.0001155838979673
843359,-0.25,-0.24,-0.25,-70.5,-71.82,-73.08,213.94,Stairs,2508.0,-5.18341307814992e-05,-5.18341307814992e-05,-5.58213716108453e-05,-0.0052153110047846,-0.0058891547049441,-0.0064912280701754,-0.0001395534290271
845868,-0.14,-0.14,-0.13,39.91,40.41,40.89,213.43,Stairs,2509.0,4.38421681944998e-05,3.985651654045436e-05,4.782781984854524e-05,0.0440055799123156,0.0447309685133519,0.0454244719011558,-0.0002032682343563
848377,-0.22,-0.22,-0.22,-58.24,-57.74,-57.37,212.94,Stairs,2509.0,-3.1885213232363485e-05,-3.1885213232363485e-05,-3.5870864886408924e-05,-0.0391191709844559,-0.0391191709844559,-0.0391630131526504,-0.0001952969310482
850886,-0.15,-0.15,-0.15,122.49,122.58,122.73,212.35,Stairs,2509.0,2.7899561578318056e-05,2.7899561578318056e-05,2.7899561578318056e-05,0.0720326823435631,0.0718692706257473,0.0717815862893583,-0.0002351534475886
853395,-0.28,-0.28,-0.28,-22.73,-22.8,-22.98,211.93,Stairs,2509.0,-5.181347150259069e-05,-5.181347150259069e-05,-5.181347150259069e-05,-0.0578796333200478,-0.0579434037465125,-0.058074930251096,-0.0001673973694699
855904,-0.18,-0.17,-0.17,-41.9,-41.8,-41.67,211.82,Stairs,2509.0,3.985651654045438e-05,4.384216819449981e-05,4.384216819449981e-05,-0.0076404942208051,-0.0075727381426863,-0.0074491829414109,-4.384216819450524e-05
858412,-0.26,-0.26,-0.27,11.25,10.8,10.45,211.87,Stairs,2508.0,-3.189792663476874e-05,-3.5885167464114834e-05,-3.987240829346093e-05,0.0211921850079744,0.0209728867623604,0.0207814992025518,1.9936204146734995e-05
860921,-0.19,-0.19,-0.2,-33.85,-34.79,-35.56,212.05,Stairs,2509.0,2.7899561578318056e-05,2.7899561578318056e-05,2.7899561578318056e-05,-0.0179752889597449,-0.0181705858907931,-0.018337983260263,7.174172977282057e-05
863430,-0.11,-0.11,-0.11,-23.44,-23.01,-22.53,212.31,Stairs,2509.0,3.188521323236349e-05,3.188521323236349e-05,3.587086488640893e-05,0.0041490633718612,0.0046950976484655,0.0051933041052212,0.0001036269430051
865939,-0.2,-0.2,-0.19,30.88,30.37,29.89,212.59,Stairs,2509.0,-3.587086488640893e-05,-3.587086488640893e-05,-3.188521323236349e-05,0.0216500597847748,0.0212754085292945,0.0208927859705061,0.0001115982463132
870957,-0.16,-0.16,-0.16,-2.1,-1.37,-0.78,213.56,Stairs,5018.0,7.971303308090875e-06,7.971303308090875e-06,5.978477481068154e-06,-0.0065723395775209,-0.0063252291749701,-0.0061119968114786,0.0001933041052212
873465,-0.21,-0.21,-0.21,-18.87,-18.27,-17.75,214.16,Stairs,2508.0,-1.993620414673046e-05,-1.993620414673046e-05,-1.993620414673046e-05,-0.0066866028708133,-0.0067384370015948,-0.0067663476874003,0.0002392344497607
875974,-0.08,-0.08,-0.08,-17.81,-18.6,-19.6,214.58,Stairs,2509.0,5.1813471502590674e-05,5.1813471502590674e-05,5.1813471502590674e-05,0.0004224790753288,-0.0001315265045835,-0.0007373455559984,0.0001673973694699
878482,-0.24,-0.24,-0.25,-26.69,-26.57,-26.4,214.63,Stairs,2508.0,-6.379585326953747e-05,-6.379585326953747e-05,-6.778309409888356e-05,-0.0035406698564593,-0.0031778309409888,-0.0027113237639553,1.9936204146723665e-05
880991,-0.07,-0.07,-0.08,-41.05,-41.08,-41.29,214.54,Stairs,2509.0,6.775607811877242e-05,6.775607811877242e-05,6.775607811877242e-05,-0.0057233957752092,-0.0057831805500199,-0.0059346353128736,-3.5870864886410286e-05
883500,-0.13,-0.13,-0.12,-44.92,-44.16,-43.38,214.25,Stairs,2509.0,-2.3913909924272617e-05,-2.3913909924272617e-05,-1.5942606616181743e-05,-0.0015424471901155,-0.0012275807094459,-0.0008330011956954,-0.0001155838979673
886009,-0.17,-0.16,-0.16,43.47,45.08,46.6,213.97,Stairs,2509.0,-1.594260661618175e-05,-1.1956954962136309e-05,-1.594260661618175e-05,0.0352291749701076,0.0355679553607014,0.0358628935831008,-0.0001115982463132
888517,-0.1,-0.1,-0.1,-14.28,-14.74,-15.27,213.54,Stairs,2508.0,2.791068580542265e-05,2.392344497607656e-05,2.392344497607656e-05,-0.0230263157894736,-0.0238516746411483,-0.0246690590111642,-0.0001714513556618
891025,-0.22,-0.22,-0.21,36.73,36.5,36.37,213.09,Stairs,2508.0,-4.784688995215311e-05,-4.784688995215311e-05,-4.385964912280701e-05,0.0203389154704944,0.0204306220095693,0.0205901116427432,-0.0001794258373205
893533,-0.19,-0.19,-0.19,3.89,4.41,4.97,212.56,Stairs,2508.0,1.1961722488038278e-05,1.1961722488038278e-05,7.97448165869218e-06,-0.0130940988835725,-0.0127950558213716,-0.0125199362041467,-0.0002113237639553
896042,-0.0,-0.0,-0.0,-39.24,-39.4,-39.63,212.11,Stairs,2509.0,7.57273814268633e-05,7.57273814268633e-05,7.57273814268633e-05,-0.0171901155838979,-0.017461139896373,-0.0177760063770426,-0.000179354324432
898551,0.04,0.04,0.04,7.15,7.51,7.65,211.86,Stairs,2509.0,1.5942606616181746e-05,1.5942606616181746e-05,1.5942606616181746e-05,0.0184894380231167,0.0186966919091271,0.0188441610203268,-9.964129135113592e-05
901060,-0.09,-0.1,-0.1,-33.84,-34.01,-34.07,211.82,Stairs,2509.0,-5.1813471502590674e-05,-5.579912315663611e-05,-5.579912315663611e-05,-0.0163371861299322,-0.0165484256675966,-0.0166281387006775,-1.59426066161899e-05
903569,-0.01,-0.01,-0.01,28.21,28.48,28.78,211.9,Stairs,2509.0,3.188521323236349e-05,3.587086488640893e-05,3.587086488640893e-05,0.0247309685133519,0.0249063371861299,0.0250498206456755,3.188521323236847e-05
906078,-0.0,-0.01,-0.01,-14.74,-15.02,-15.21,212.19,Stairs,2509.0,3.9856516540454365e-06,0.0,0.0,-0.0171183738541251,-0.0173375846950976,-0.0175328816261458,0.0001155838979673
908587,-0.02,-0.02,-0.03,-5.05,-4.69,-4.35,212.48,Stairs,2509.0,-7.971303308090873e-06,-3.9856516540454365e-06,-7.971303308090871e-06,0.00386209645277,0.0041171781586289,0.0043284176962933,0.0001155838979673
911096,-0.1,-0.1,-0.1,31.04,30.68,30.26,212.93,Stairs,2509.0,-3.188521323236349e-05,-3.188521323236349e-05,-2.7899561578318056e-05,0.0143842168194499,0.0140972499003587,0.0137943403746512,0.000179354324432
913605,-0.09,-0.08,-0.08,-35.6,-35.56,-35.46,213.38,Stairs,2509.0,3.98565165404544e-06,7.971303308090875e-06,7.971303308090875e-06,-0.0265603826225587,-0.0264009565563969,-0.0261937026703866,0.000179354324432
916114,0.01,0.0,0.0,-0.46,-0.13,0.16,213.85,Stairs,2509.0,3.985651654045436e-05,3.188521323236349e-05,3.188521323236349e-05,0.0140055799123156,0.0141211638102829,0.0141968911917098,0.0001873256277401
918622,0.09,0.09,0.09,24.44,24.7,24.93,214.49,Stairs,2508.0,3.189792663476874e-05,3.5885167464114834e-05,3.5885167464114834e-05,0.0099282296650717,0.0099003189792663,0.0098763955342902,0.0002551834130781
921131,0.08,0.08,0.08,-7.27,-7.25,-7.29,214.71,Stairs,2509.0,-3.985651654045435e-06,-3.985651654045435e-06,-3.985651654045435e-06,-0.012638501394978,-0.0127341570346751,-0.0128417696293343,8.768433638899914e-05
923640,0.0,-0.0,0.01,-54.54,-54.47,-54.34,214.69,Stairs,2509.0,-3.188521323236349e-05,-3.188521323236349e-05,-2.7899561578318056e-05,-0.0188401753686727,-0.0188202471104025,-0.0187524910322837,-7.97130330809495e-06
926149,0.08,0.08,0.08,-2.96,-2.94,-3.07,214.51,Stairs,2509.0,3.188521323236349e-05,3.188521323236349e-05,2.7899561578318056e-05,0.0205579912315663,0.0205380629732961,0.0204344360302909,-7.174172977282057e-05
928658,0.07,0.08,0.08,-18.76,-18.47,-18.13,214.19,Stairs,2509.0,-3.985651654045435e-06,0.0,0.0,-0.0062973296133917,-0.0061897170187325,-0.0060023913909924,-0.0001275408529294
931167,0.07,0.07,0.07,22.55,21.97,21.39,213.82,Stairs,2509.0,0.0,-3.985651654045435e-06,-3.985651654045435e-06,0.0164647269828616,0.0161179752889597,0.0157512953367875,-0.0001474691111996
933675,0.06,0.07,0.07,-8.83,-8.98,-9.12,213.35,Stairs,2508.0,-3.987240829346096e-06,0.0,0.0,-0.012511961722488,-0.0123405103668261,-0.0121650717703349,-0.0001874003189792
936184,0.02,0.02,0.02,13.61,13.53,13.56,212.96,Stairs,2509.0,-1.5942606616181743e-05,-1.9928258270227185e-05,-1.9928258270227185e-05,0.0089438023116779,0.0089717018732562,0.009039457951375,-0.0001554404145077
938693,-0.04,-0.04,-0.04,39.31,39.27,38.97,212.42,Stairs,2509.0,-2.3913909924272617e-05,-2.3913909924272617e-05,-2.3913909924272617e-05,0.0102431247508967,0.0102590673575129,0.0101275408529294,-0.0002152251893184
941202,0.0,0.01,0.01,-38.02,-37.69,-37.36,211.94,Stairs,2509.0,1.5942606616181746e-05,1.9928258270227185e-05,1.9928258270227185e-05,-0.0308210442407333,-0.0306735751295336,-0.0304224790753288,-0.0001913112793941
943711,-0.27,-0.27,-0.27,46.02,45.34,44.64,211.72,Stairs,2509.0,-0.0001076125946592,-0.0001115982463132,-0.0001115982463132,0.0334954165005978,0.0330928656835392,0.0326823435631725,-8.768433638899914e-05
946220,-0.14,-0.14,-0.15,12.09,11.82,11.67,211.73,Stairs,2509.0,5.1813471502590674e-05,5.1813471502590674e-05,4.782781984854525e-05,-0.0135233160621761,-0.0133599043443603,-0.0131406935033878,3.985651654041811e-06
948728,-0.21,-0.21,-0.22,27.56,28.69,29.76,211.93,Stairs,2508.0,-2.791068580542264e-05,-2.791068580542264e-05,-2.791068580542265e-05,0.0061682615629984,0.0067264752791068,0.007212918660287,7.974481658692865e-05
951237,-0.19,-0.19,-0.18,41.86,41.92,42.05,212.28,Stairs,2509.0,7.97130330809087e-06,7.97130330809087e-06,1.594260661618175e-05,0.0056994818652849,0.0052730171383021,0.0048983658828218,0.0001394978078915
953746,-0.22,-0.22,-0.22,14.32,15.02,15.77,212.62,Stairs,2509.0,-1.1956954962136309e-05,-1.1956954962136309e-05,-1.594260661618175e-05,-0.0109764846552411,-0.0107214029493822,-0.0104742925468314,0.0001355121562375
956255,-0.14,-0.14,-0.14,43.54,43.1,42.68,213.13,Stairs,2509.0,3.1885213232363485e-05,3.1885213232363485e-05,3.1885213232363485e-05,0.0116460741331207,0.0111917098445595,0.0107253886010362,0.0002032682343563
958764,-0.16,-0.16,-0.16,-24.56,-23.95,-23.32,213.57,Stairs,2509.0,-7.97130330809087e-06,-7.97130330809087e-06,-7.97130330809087e-06,-0.0271422877640494,-0.0267237943403746,-0.0263053009166998,0.0001753686727779
961273,-0.12,-0.12,-0.13,12.81,12.73,12.6,214.19,Stairs,2509.0,1.594260661618175e-05,1.594260661618175e-05,1.1956954962136309e-05,0.0148943802311677,0.0146193702670386,0.0143164607413312,0.0002471104025508
963781,-0.16,-0.16,-0.16,-10.02,-10.67,-11.4,214.52,Stairs,2508.0,-1.594896331738437e-05,-1.594896331738437e-05,-1.1961722488038278e-05,-0.0091028708133971,-0.0093301435406698,-0.0095693779904306,0.0001315789473684
966290,-0.29,-0.3,-0.3,10.05,9.52,9.08,214.53,Stairs,2509.0,-5.181347150259067e-05,-5.5799123156636106e-05,-5.5799123156636106e-05,0.0079992028696691,0.0080470306895177,0.008162614587485,3.985651654041811e-06
968799,-0.05,-0.06,-0.06,-19.2,-19.72,-20.23,214.4,Stairs,2509.0,9.565563969709048e-05,9.565563969709048e-05,9.565563969709048e-05,-0.0116580310880829,-0.0116540454364288,-0.0116819449980071,-5.181347150258886e-05
971308,-0.07,-0.06,-0.07,-39.27,-39.28,-39.32,214.11,Stairs,2509.0,-7.971303308090875e-06,0.0,-3.98565165404544e-06,-0.0079992028696691,-0.0077959346353128,-0.0076086090075727,-0.0001155838979673
973817,-0.08,-0.08,-0.08,-23.6,-23.52,-23.34,213.84,Stairs,2509.0,-3.985651654045435e-06,-7.971303308090875e-06,-3.985651654045435e-06,0.0062455161418892,0.0062813870067756,0.0063690713431646,-0.0001076125946592
976326,-0.15,-0.15,-0.15,27.56,27.54,27.63,213.4,Stairs,2509.0,-2.7899561578318053e-05,-2.7899561578318053e-05,-2.7899561578318053e-05,0.0203905938620964,0.0203507373455559,0.0203148664806695,-0.0001753686727779
978834,-0.1,-0.1,-0.1,-31.72,-31.51,-31.31,212.97,Stairs,2508.0,1.993620414673046e-05,1.993620414673046e-05,1.993620414673046e-05,-0.0236363636363636,-0.0235446570972886,-0.0235007974481658,-0.0001714513556618
981343,-0.07,-0.07,-0.07,74.53,73.44,71.79,212.33,Stairs,2509.0,1.1956954962136309e-05,1.1956954962136309e-05,1.1956954962136309e-05,0.0423475488242327,0.0418294141092068,0.0410920685532084,-0.0002550817058589
983852,0.06,0.05,0.06,-19.35,-19.37,-19.41,211.78,Stairs,2509.0,5.1813471502590674e-05,4.782781984854524e-05,5.1813471502590674e-05,-0.0374172977281785,-0.0369908330011957,-0.0363491430848943,-0.0002192108409725
986361,-0.03,-0.03,-0.02,7.68,7.45,7.21,211.62,Stairs,2509.0,-3.5870864886408924e-05,-3.188521323236349e-05,-3.188521323236349e-05,0.0107732164208848,0.0106895177361498,0.0106098047030689,-6.377042646472563e-05
988870,0.04,0.04,0.04,-55.81,-56.0,-56.24,211.62,Stairs,2509.0,2.7899561578318056e-05,2.7899561578318056e-05,2.3913909924272617e-05,-0.0253049023515344,-0.0252889597449182,-0.0252889597449182,0.0
991379,0.17,0.16,0.16,23.13,23.61,24.02,211.75,Stairs,2509.0,5.1813471502590674e-05,4.782781984854524e-05,4.782781984854524e-05,0.0314627341570346,0.0317297728178557,0.0319888401753686,5.181347150258886e-05
993887,0.04,0.04,0.04,17.66,17.73,17.72,212.04,Stairs,2508.0,-5.18341307814992e-05,-4.784688995215311e-05,-4.784688995215311e-05,-0.0021810207336523,-0.0023444976076555,-0.002511961722488,0.000115629984051
996396,0.02,0.02,0.03,-10.35,-10.08,-9.97,212.35,Stairs,2509.0,-7.971303308090873e-06,-7.971303308090873e-06,-3.985651654045437e-06,-0.0111638102829812,-0.0110840972499003,-0.0110362694300518,0.0001235552012754
998905,0.12,0.11,0.11,1.33,1.44,1.57,212.79,Stairs,2509.0,3.985651654045436e-05,3.5870864886408924e-05,3.188521323236349e-05,0.004655241131925,0.0045914707054603,0.0045994420087684,0.0001753686727779
1001414,-0.03,-0.03,-0.03,-7.15,-7.01,-7.0,213.26,Stairs,2509.0,-5.9784774810681545e-05,-5.579912315663611e-05,-5.579912315663611e-05,-0.0033798326026305,-0.0033678756476683,-0.0034157034675169,0.0001873256277401
1003923,-0.06,-0.06,-0.06,-47.01,-47.27,-47.56,213.79,Stairs,2509.0,-1.1956954962136309e-05,-1.1956954962136309e-05,-1.1956954962136309e-05,-0.0158868074930251,-0.0160462335591869,-0.0161658031088082,0.0002112395376644
1006432,-0.09,-0.09,-0.09,-25.82,-25.73,-25.69,214.33,Stairs,2509.0,-1.1956954962136309e-05,-1.1956954962136309e-05,-1.1956954962136309e-05,0.0084455958549222,0.0085850936628138,0.0087166201673973,0.0002152251893184
1008940,0.03,0.03,0.03,9.1,8.68,8.28,214.61,Stairs,2508.0,4.784688995215311e-05,4.784688995215311e-05,4.784688995215311e-05,0.0139234449760765,0.0137200956937799,0.0135446570972886,0.0001116427432216
1011449,-0.14,-0.14,-0.14,-31.91,-31.59,-31.31,214.51,Stairs,2509.0,-6.775607811877243e-05,-6.775607811877243e-05,-6.775607811877243e-05,-0.0163451574332403,-0.0160502192108409,-0.0157791948983658,-3.985651654046342e-05
1013958,-0.07,-0.06,-0.06,0.2,-0.15,-0.42,214.36,Stairs,2509.0,2.7899561578318056e-05,3.18852132323635e-05,3.18852132323635e-05,0.0127979274611398,0.0125308888003188,0.0123116779593463,-5.9784774810672485e-05
1016467,-0.26,-0.26,-0.27,-78.56,-79.8,-80.85,213.95,Stairs,2509.0,-7.57273814268633e-05,-7.971303308090873e-05,-8.369868473495417e-05,-0.0313909924272618,-0.0317457154244718,-0.0320565962534874,-0.0001634117178158
1018976,-0.22,-0.21,-0.21,-6.46,-5.68,-4.87,213.56,Stairs,2509.0,1.594260661618175e-05,1.992825827022719e-05,2.3913909924272628e-05,0.0287365484256676,0.0295416500597847,0.0302829812674372,-0.0001554404145077
1021485,-0.32,-0.32,-0.32,18.06,18.44,18.76,213.07,Stairs,2509.0,-3.985651654045436e-05,-4.384216819449981e-05,-4.384216819449981e-05,0.0097728178557194,0.0096133917895575,0.0094180948585093,-0.0001952969310482
1023993,-0.17,-0.16,-0.17,28.49,27.99,27.51,212.57,Stairs,2508.0,5.980861244019138e-05,6.379585326953749e-05,5.980861244019138e-05,0.0041586921850079,0.0038078149920255,0.0034888357256778,-0.0001993620414673
1026502,-0.1,-0.1,-0.1,-107.5,-107.95,-108.31,211.9,Stairs,2509.0,2.7899561578318056e-05,2.3913909924272617e-05,2.7899561578318056e-05,-0.0542008768433638,-0.0541809485850936,-0.0541331207652451,-0.000267038660821
1029011,-0.2,-0.21,-0.21,-47.82,-47.47,-47.16,211.35,Stairs,2509.0,-3.985651654045436e-05,-4.38421681944998e-05,-4.38421681944998e-05,0.0237863690713431,0.0241052212036668,0.0243722598644878,-0.0002192108409725
1031520,-0.19,-0.18,-0.18,7.15,6.53,5.78,211.19,Stairs,2509.0,3.98565165404544e-06,1.1956954962136309e-05,1.1956954962136309e-05,0.0219091271422877,0.0215225189318453,0.0211000398565165,-6.377042646472563e-05
1034029,-0.23,-0.23,-0.23,-10.57,-11.02,-11.43,211.27,Stairs,2509.0,-1.594260661618175e-05,-1.992825827022719e-05,-1.992825827022719e-05,-0.0070625747309685,-0.0069948186528497,-0.0068593064966121,3.188521323236847e-05
1036538,-0.02,-0.01,-0.01,-27.32,-27.31,-27.33,211.56,Stairs,2509.0,8.369868473495417e-05,8.76843363889996e-05,8.76843363889996e-05,-0.0066759665205261,-0.00649262654444,-0.0063371861299322,0.0001155838979673
1039046,-0.21,-0.2,-0.2,39.98,40.11,40.29,212.08,Stairs,2508.0,-7.575757575757576e-05,-7.575757575757576e-05,-7.575757575757576e-05,0.0268341307814992,0.0268819776714513,0.0269617224880382,0.000207336523126
1041555,-0.3,-0.3,-0.3,44.02,44.44,44.73,212.4,Stairs,2509.0,-3.5870864886408924e-05,-3.985651654045436e-05,-3.985651654045436e-05,0.0016102032682343,0.0017257871662016,0.0017696293343961,0.0001275408529294
1044064,-0.27,-0.27,-0.27,18.96,19.24,19.45,212.74,Stairs,2509.0,1.19569549621363e-05,1.19569549621363e-05,1.19569549621363e-05,-0.0099880430450378,-0.0100438421681944,-0.0100757273814268,0.0001355121562375
1046573,-0.11,-0.1,-0.1,-24.2,-24.25,-24.32,213.17,Stairs,2509.0,6.3770426464727e-05,6.775607811877243e-05,6.775607811877243e-05,-0.0172020725388601,-0.0173335990434436,-0.0174451972897568,0.0001713830211239
1049082,-0.19,-0.18,-0.18,14.78,14.71,14.64,213.69,Stairs,2509.0,-3.188521323236349e-05,-3.1885213232363485e-05,-3.1885213232363485e-05,0.0155360701474691,0.015528098844161,0.015528098844161,0.0002072538860103
1051591,-0.37,-0.37,-0.37,-57.69,-57.28,-56.91,214.15,Stairs,2509.0,-7.174172977281785e-05,-7.57273814268633e-05,-7.57273814268633e-05,-0.0288840175368672,-0.0286927062574731,-0.028517337584695,0.000183339976086
1054099,-0.23,-0.23,-0.24,-62.27,-62.49,-62.69,214.34,Stairs,2508.0,5.582137161084529e-05,5.582137161084529e-05,5.18341307814992e-05,-0.0018261562998405,-0.0020773524720893,-0.002304625199362,7.575757575757485e-05
1056608,-0.15,-0.14,-0.14,-30.48,-30.05,-29.53,214.33,Stairs,2509.0,3.18852132323635e-05,3.5870864886408924e-05,3.985651654045436e-05,0.0126703866082104,0.0129294539657233,0.0132164208848146,-3.985651654041811e-06
1059117,-0.1,-0.1,-0.09,-28.02,-28.02,-28.03,214.14,Stairs,2509.0,1.992825827022718e-05,1.594260661618175e-05,1.992825827022719e-05,0.0009804703068951,0.0008090872857712,0.0005978477481068,-7.572738142687372e-05
1061626,-0.2,-0.2,-0.2,-73.27,-73.27,-73.31,213.82,Stairs,2509.0,-3.985651654045436e-05,-3.985651654045436e-05,-4.384216819449981e-05,-0.0180350737345556,-0.0180350737345556,-0.0180470306895177,-0.0001275408529294
1064135,-0.35,-0.35,-0.35,-100.11,-100.19,-100.18,213.36,Stairs,2509.0,-5.978477481068153e-05,-5.978477481068153e-05,-5.978477481068153e-05,-0.0106974890394579,-0.0107293742526903,-0.01070944599442,-0.000183339976086
1066644,-0.27,-0.27,-0.26,-59.89,-59.85,-59.75,212.75,Stairs,2509.0,3.188521323236348e-05,3.188521323236348e-05,3.587086488640892e-05,0.0160302909525707,0.0160781187724192,0.0161139896373057,-0.0002431247508967
1089639,-0.1,-0.1,-0.1,-16.11,-15.96,-15.82,212.84,Stairs,22995.0,7.392911502500544e-06,7.392911502500544e-06,6.95803435529463e-06,0.0019038921504674,0.0019086757990867,0.0019104153076755,3.913894324853377e-06
1092148,-0.02,-0.02,-0.03,-32.2,-32.42,-32.7,213.33,Stairs,2509.0,3.188521323236349e-05,3.188521323236349e-05,2.7899561578318056e-05,-0.0064129135113591,-0.0065603826225587,-0.0067277799920286,0.0001952969310482
1094657,0.02,0.02,0.03,24.39,24.67,24.96,213.9,Stairs,2509.0,1.5942606616181746e-05,1.5942606616181746e-05,2.3913909924272617e-05,0.0225548027102431,0.0227540852929453,0.0229812674372259,0.0002271821442805
1097166,-0.05,-0.05,-0.05,29.93,29.22,28.72,214.38,Stairs,2509.0,-2.7899561578318056e-05,-2.7899561578318056e-05,-3.188521323236349e-05,0.0022080510163411,0.0018134715025906,0.001498605021921,0.0001913112793941
1099675,0.07,0.07,0.07,-4.89,-4.07,-3.27,214.59,Stairs,2509.0,4.782781984854524e-05,4.782781984854524e-05,4.782781984854524e-05,-0.0138780390593862,-0.0132682343563172,-0.0127500996412913,8.369868473495733e-05
1102184,-0.15,-0.15,-0.15,-25.93,-26.26,-26.44,214.54,Stairs,2509.0,-8.76843363889996e-05,-8.76843363889996e-05,-8.76843363889996e-05,-0.0083858110801115,-0.0088441610203268,-0.0092347548824232,-1.992825827023171e-05
1104693,0.07,0.08,0.07,20.41,21.24,22.03,214.39,Stairs,2509.0,8.76843363889996e-05,9.166998804304504e-05,8.76843363889996e-05,0.0184695097648465,0.0189318453567158,0.0193184535671582,-5.9784774810683815e-05
1107202,0.05,0.06,0.06,-19.33,-19.21,-19.37,214.01,Stairs,2509.0,-7.971303308090875e-06,-7.971303308090875e-06,-3.98565165404544e-06,-0.0158389796731765,-0.0161219609406137,-0.0165005978477481,-0.0001514547628537
1109711,-0.02,-0.02,-0.02,-27.35,-27.82,-28.12,213.68,Stairs,2509.0,-2.7899561578318056e-05,-3.188521323236349e-05,-3.188521323236349e-05,-0.0031964926265444,-0.0034316460741331,-0.0034874451972897,-0.0001315265045834
1112220,0.26,0.25,0.23,5.5,6.18,6.92,213.19,Stairs,2509.0,0.0001115982463132,0.0001076125946592,9.964129135113592e-05,0.0130928656835392,0.0135512156237544,0.0139657233957752,-0.0001952969310482
1114729,-0.1,-0.1,-0.1,26.37,26.89,27.4,212.61,Stairs,2509.0,-0.0001434834595456,-0.0001394978078915,-0.0001315265045834,0.0083180550019928,0.0082542845755281,0.008162614587485,-0.0002311677959346
1117238,-0.2,-0.2,-0.19,-8.93,-9.25,-9.5,211.89,Stairs,2509.0,-3.985651654045436e-05,-3.985651654045436e-05,-3.5870864886408924e-05,-0.0140693503387803,-0.0144041450777202,-0.0147070546034276,-0.0002869669190912
1119747,-0.06,-0.06,-0.06,-42.93,-42.7,-42.62,211.4,Stairs,2509.0,5.579912315663611e-05,5.579912315663611e-05,5.1813471502590674e-05,-0.0135512156237544,-0.0133320047827819,-0.0132004782781984,-0.0001952969310482
1122256,-0.18,-0.18,-0.18,41.31,40.52,39.71,211.25,Stairs,2509.0,-4.782781984854524e-05,-4.782781984854524e-05,-4.782781984854524e-05,0.0335751295336787,0.0331685930649661,0.032813870067756,-5.9784774810683815e-05
1124765,-0.13,-0.13,-0.14,-13.14,-14.36,-15.57,211.29,Stairs,2509.0,1.992825827022718e-05,1.992825827022718e-05,1.594260661618174e-05,-0.0217018732562774,-0.0218732562774013,-0.0220326823435631,1.5942606616178575e-05
1127274,-0.14,-0.15,-0.15,-46.82,-46.2,-45.58,211.62,Stairs,2509.0,-3.98565165404544e-06,-7.97130330809087e-06,-3.985651654045429e-06,-0.013423674770825,-0.0126903148664806,-0.0119609406137903,0.0001315265045835
1129783,-0.01,-0.02,-0.01,-8.84,-9.21,-9.5,211.9,Stairs,2509.0,5.1813471502590674e-05,5.1813471502590674e-05,5.5799123156636106e-05,0.0151375049820645,0.014742925468314,0.0143802311677959,0.0001115982463132
1132292,-0.12,-0.12,-0.12,-18.7,-18.39,-18.11,212.34,Stairs,2509.0,-4.38421681944998e-05,-3.985651654045436e-05,-4.38421681944998e-05,-0.0039298525308888,-0.0036588282184137,-0.0034316460741331,0.0001753686727779
1134801,0.07,0.06,0.06,-6.76,-7.13,-7.48,212.92,Stairs,2509.0,7.57273814268633e-05,7.174172977281785e-05,7.174172977281785e-05,0.0047588680749302,0.0044878437624551,0.0042367477082502,0.0002311677959346
1137310,-0.17,-0.18,-0.18,58.11,58.63,59.15,213.46,Stairs,2509.0,-9.565563969709048e-05,-9.565563969709048e-05,-9.565563969709048e-05,0.0258549222797927,0.0262096452770027,0.0265563969709047,0.0002152251893184
1139818,-0.22,-0.22,-0.23,-0.63,-0.05,0.49,213.97,Stairs,2508.0,-1.993620414673046e-05,-1.594896331738437e-05,-1.993620414673047e-05,-0.0234210526315789,-0.0233971291866028,-0.0233891547049441,0.0002033492822966
1142327,-0.11,-0.11,-0.11,-42.56,-42.11,-41.6,214.12,Stairs,2509.0,4.38421681944998e-05,4.38421681944998e-05,4.782781984854524e-05,-0.0167118373854125,-0.0167636508569151,-0.0167756078118772,5.9784774810683815e-05
1144836,-0.09,-0.09,-0.09,-16.6,-16.25,-15.85,214.03,Stairs,2509.0,7.971303308090875e-06,7.971303308090875e-06,7.971303308090875e-06,0.0103467516939019,0.0103068951773614,0.0102630530091669,-3.5870864886410286e-05
1147345,-0.14,-0.14,-0.14,-7.69,-7.6,-7.5,213.69,Stairs,2509.0,-1.992825827022719e-05,-1.992825827022719e-05,-1.992825827022719e-05,0.0035512156237544,0.0034475886807493,0.0033280191311279,-0.0001355121562375
1149854,-0.12,-0.12,-0.13,-1.0,-1.13,-1.21,213.32,Stairs,2509.0,7.97130330809088e-06,7.97130330809088e-06,3.98565165404544e-06,0.0026664009565563,0.0025787166201673,0.0025069748903945,-0.0001474691111996
1152363,-0.09,-0.08,-0.08,-62.85,-62.53,-62.14,212.91,Stairs,2509.0,1.1956954962136309e-05,1.5942606616181743e-05,1.9928258270227185e-05,-0.024651255480271,-0.0244719011558389,-0.0242845755280988,-0.0001634117178158
1154872,-0.04,-0.05,-0.05,-41.82,-41.75,-41.74,212.37,Stairs,2509.0,1.9928258270227185e-05,1.1956954962136309e-05,1.1956954962136309e-05,0.0083818254284575,0.0082821841371064,0.0081307293742526,-0.0002152251893184
1157381,-0.36,-0.36,-0.36,68.5,68.72,68.92,211.82,Stairs,2509.0,-0.0001275408529294,-0.0001235552012754,-0.0001235552012754,0.0439697090474292,0.0440294938222399,0.0441052212036668,-0.0002192108409725
1159890,-0.15,-0.15,-0.16,-12.42,-12.62,-12.73,211.28,Stairs,2509.0,8.369868473495416e-05,8.369868473495416e-05,7.971303308090873e-05,-0.0322518931845356,-0.0324192905540055,-0.0325428457552809,-0.0002152251893184
1162399,-0.21,-0.21,-0.21,-18.86,-18.39,-17.8,211.03,Stairs,2509.0,-2.3913909924272617e-05,-2.3913909924272617e-05,-1.992825827022718e-05,-0.0025667596652052,-0.0022997210043842,-0.002020725388601,-9.964129135113592e-05
1164908,-0.23,-0.22,-0.22,20.33,20.47,20.46,211.02,Stairs,2509.0,-7.97130330809088e-06,-3.98565165404544e-06,-3.98565165404544e-06,0.015619768832204,0.0154882423276205,0.0152491032283778,-3.985651654041811e-06
1167417,-0.09,-0.09,-0.1,15.79,14.58,13.4,211.15,Stairs,2509.0,5.579912315663611e-05,5.1813471502590674e-05,4.782781984854524e-05,-0.0018094858509366,-0.0023475488242327,-0.002813870067756,5.181347150258886e-05
1169926,-0.04,-0.04,-0.04,16.08,16.4,16.75,211.41,Stairs,2509.0,1.9928258270227185e-05,1.9928258270227185e-05,2.391390992427262e-05,0.0001155838979673,0.0007253886010362,0.0013351933041052,0.0001036269430051
1172435,-0.1,-0.1,-0.1,-1.02,-1.27,-1.53,211.72,Stairs,2509.0,-2.391390992427262e-05,-2.391390992427262e-05,-2.391390992427262e-05,-0.0068154643284176,-0.0070426464726982,-0.007285771223595,0.0001235552012754
1174944,-0.08,-0.07,-0.07,-3.56,-3.24,-2.89,212.12,Stairs,2509.0,7.971303308090875e-06,1.1956954962136309e-05,1.1956954962136309e-05,-0.0010123555201275,-0.0007851733758469,-0.0005420486249501,0.0001594260661618
1177453,-0.17,-0.16,-0.16,28.45,28.25,28.02,212.64,Stairs,2509.0,-3.587086488640893e-05,-3.5870864886408924e-05,-3.5870864886408924e-05,0.0127580709445994,0.012550817058589,0.0123196492626544,0.0002072538860103
1179962,-0.27,-0.27,-0.27,-68.92,-68.92,-69.04,213.24,Stairs,2509.0,-3.985651654045436e-05,-4.384216819449981e-05,-4.384216819449981e-05,-0.0388082901554404,-0.0387285771223595,-0.038684734954165,0.0002391390992427
1182471,-0.15,-0.15,-0.15,-25.02,-24.91,-24.79,213.8,Stairs,2509.0,4.782781984854525e-05,4.782781984854525e-05,4.782781984854525e-05,0.0174970107612594,0.0175408529294539,0.017636508569151,0.0002231964926265
1184979,0.03,0.03,0.02,-12.76,-12.94,-13.11,214.07,Stairs,2508.0,7.177033492822967e-05,7.177033492822967e-05,6.778309409888356e-05,0.0048883572567783,0.0047727272727272,0.0046570972886762,0.0001076555023923
1187488,0.04,0.04,0.04,-6.3,-6.36,-6.42,214.01,Stairs,2509.0,3.985651654045437e-06,3.985651654045437e-06,7.971303308090873e-06,0.0025747309685133,0.0026225587883618,0.0026664009565563,-2.3913909924273525e-05
1189997,-0.03,-0.03,-0.03,-22.21,-22.2,-22.12,213.78,Stairs,2509.0,-2.7899561578318056e-05,-2.7899561578318056e-05,-2.7899561578318056e-05,-0.0063411717815862,-0.0063132722200079,-0.0062574730968513,-9.166998804304096e-05
1192506,0.07,0.06,0.06,-5.04,-4.18,-3.49,213.42,Stairs,2509.0,3.985651654045436e-05,3.5870864886408924e-05,3.5870864886408924e-05,0.006843363889996,0.0071821442805898,0.0074252690314866,-0.0001434834595456
1195015,0.11,0.11,0.11,-19.47,-19.46,-19.67,213.0,Stairs,2509.0,1.5942606616181743e-05,1.9928258270227185e-05,1.9928258270227185e-05,-0.0057512953367875,-0.0060900757273814,-0.0064487843762455,-0.0001673973694699
1197524,0.05,0.05,0.05,32.23,32.09,31.93,212.5,Stairs,2509.0,-2.3913909924272617e-05,-2.3913909924272617e-05,-2.3913909924272617e-05,0.0206058190514149,0.0205460342766042,0.0205659625348744,-0.0001992825827022
1200033,0.09,0.09,0.09,4.52,4.43,4.37,211.98,Stairs,2509.0,1.5942606616181743e-05,1.5942606616181743e-05,1.5942606616181743e-05,-0.0110442407333599,-0.0110243124750896,-0.0109844559585492,-0.0002072538860103
1202542,0.22,0.22,0.21,46.12,46.05,45.89,211.34,Stairs,2509.0,5.1813471502590674e-05,5.1813471502590674e-05,4.782781984854524e-05,0.016580310880829,0.0165882821841371,0.0165484256675966,-0.0002550817058589
1205051,0.05,0.06,0.06,35.95,35.44,34.85,211.02,Stairs,2509.0,-6.775607811877242e-05,-6.377042646472698e-05,-5.9784774810681545e-05,-0.0040534077321642,-0.0042287764049422,-0.0044001594260661,-0.0001275408529294
1207560,0.12,0.12,0.12,-5.64,-6.32,-7.08,211.01,Stairs,2509.0,2.7899561578318053e-05,2.3913909924272617e-05,2.3913909924272617e-05,-0.0165763252291749,-0.0166440813072937,-0.0167118373854125,-3.9856516540531394e-06
1210069,-0.04,-0.04,-0.04,-35.47,-35.5,-35.56,211.07,Stairs,2509.0,-6.377042646472698e-05,-6.377042646472698e-05,-6.377042646472698e-05,-0.0118891988840175,-0.0116301315265045,-0.0113511359107214,2.3913909924273525e-05
1212578,-0.01,-0.01,-0.01,-8.73,-8.4,-8.09,211.29,Stairs,2509.0,1.1956954962136309e-05,1.1956954962136309e-05,1.1956954962136309e-05,0.0106576325229174,0.0108011159824631,0.0109485850936628,8.768433638899914e-05
1215087,0.12,0.11,0.11,28.25,28.73,29.25,211.59,Stairs,2509.0,5.1813471502590674e-05,4.782781984854524e-05,4.782781984854524e-05,0.01473893981666,0.0147987245914707,0.0148824232762056,0.0001195695496213
1217596,-0.04,-0.04,-0.04,-19.43,-19.48,-19.42,212.08,Stairs,2509.0,-6.377042646472698e-05,-5.9784774810681545e-05,-5.9784774810681545e-05,-0.0190035870864886,-0.019214826624153,-0.0193981666002391,0.0001952969310482
1220105,0.05,0.05,0.04,-33.9,-33.98,-34.05,212.59,Stairs,2509.0,3.5870864886408924e-05,3.5870864886408924e-05,3.188521323236349e-05,-0.0057672379434037,-0.0057791948983658,-0.0058310083698684,0.0002032682343563
1222614,-0.03,-0.03,-0.03,-39.49,-39.4,-39.2,213.06,Stairs,2509.0,-3.188521323236349e-05,-3.188521323236349e-05,-2.7899561578318056e-05,-0.0022279792746114,-0.0021602231964926,-0.0020526106018334,0.0001873256277401
1225123,0.13,0.13,0.13,70.74,70.25,69.92,213.56,Stairs,2509.0,6.377042646472698e-05,6.377042646472698e-05,6.377042646472698e-05,0.0439338381825428,0.0437026703866082,0.0434914308489438,0.0001992825827022
1227632,-0.14,-0.14,-0.13,-58.03,-57.94,-57.85,214.11,Stairs,2509.0,-0.0001076125946592,-0.0001076125946592,-0.0001036269430051,-0.051323236349143,-0.0510920685532084,-0.0509246711837385,0.0002192108409725
1230141,-0.1,-0.09,-0.09,34.26,33.68,33.01,214.27,Stairs,2509.0,1.594260661618175e-05,1.992825827022719e-05,1.594260661618175e-05,0.0367835791151853,0.0365165404543642,0.0362136309286568,6.377042646472563e-05
1232650,-0.21,-0.2,-0.2,33.41,34.22,35.06,214.19,Stairs,2509.0,-4.38421681944998e-05,-4.384216819449981e-05,-4.384216819449981e-05,-0.0003387803905938,0.0002152251893184,0.0008170585890793,-3.188521323236847e-05
1235159,-0.09,-0.08,-0.09,-32.85,-32.37,-31.93,213.9,Stairs,2509.0,4.782781984854524e-05,4.782781984854524e-05,4.384216819449981e-05,-0.026408927859705,-0.0265404543642885,-0.0266998804304503,-0.0001155838979673
1237668,-0.18,-0.18,-0.17,-26.85,-26.64,-26.43,213.43,Stairs,2509.0,-3.5870864886408924e-05,-3.985651654045436e-05,-3.18852132323635e-05,0.0023913909924272,0.002283778397768,0.0021921084097249,-0.0001873256277401
1240177,-0.33,-0.33,-0.32,-88.3,-87.21,-86.31,212.94,Stairs,2509.0,-5.978477481068155e-05,-5.978477481068155e-05,-5.9784774810681545e-05,-0.0244918294141092,-0.0241410920685532,-0.023866082104424,-0.0001952969310482
1242686,-0.18,-0.18,-0.18,6.19,5.86,5.44,212.37,Stairs,2509.0,5.978477481068155e-05,5.978477481068155e-05,5.579912315663611e-05,0.0376604224790753,0.0370944599442008,0.0365683539258668,-0.0002271821442805
1245195,-0.36,-0.36,-0.36,92.68,93.63,94.53,211.82,Stairs,2509.0,-7.174172977281785e-05,-7.174172977281785e-05,-7.174172977281785e-05,0.0344719011558389,0.0349820645675567,0.0355081705858907,-0.0002192108409725
1247704,-0.34,-0.35,-0.35,-32.44,-33.18,-33.86,211.28,Stairs,2509.0,7.971303308090858e-06,3.98565165404544e-06,3.98565165404544e-06,-0.0498684734954165,-0.0505420486249501,-0.0511717815862893,-0.0002152251893184
1250213,-0.19,-0.2,-0.19,-23.47,-23.12,-22.66,210.94,Stairs,2509.0,5.978477481068155e-05,5.978477481068153e-05,6.377042646472697e-05,0.0035751295336787,0.0040095655639697,0.0044639298525308,-0.0001355121562375
1252722,-0.25,-0.25,-0.25,69.17,68.89,68.63,210.91,Stairs,2509.0,-2.3913909924272617e-05,-1.992825827022718e-05,-2.3913909924272617e-05,0.0369230769230769,0.036671980868872,0.0363850139497807,-1.1956954962136764e-05
1255231,-0.28,-0.28,-0.28,-8.17,-8.59,-9.11,211.03,Stairs,2509.0,-1.195695496213632e-05,-1.195695496213632e-05,-1.195695496213632e-05,-0.0308250298923874,-0.030880829015544,-0.0309844559585492,4.782781984854705e-05
1257740,-0.23,-0.24,-0.24,-25.53,-25.37,-25.03,211.28,Stairs,2509.0,1.992825827022719e-05,1.594260661618176e-05,1.594260661618176e-05,-0.0069190912714228,-0.0066879234754882,-0.0063451574332403,9.964129135113592e-05
1260249,-0.31,-0.31,-0.31,62.55,62.81,63.1,211.59,Stairs,2509.0,-3.1885213232363485e-05,-2.7899561578318056e-05,-2.7899561578318056e-05,0.0351056197688322,0.0351454762853726,0.0351255480271024,0.0001235552012754
1262758,-0.42,-0.41,-0.41,-36.76,-37.11,-37.23,211.96,Stairs,2509.0,-4.38421681944998e-05,-3.985651654045436e-05,-3.985651654045436e-05,-0.0395815065763252,-0.039824631327222,-0.0399880430450378,0.0001474691111996
1265267,-0.26,-0.25,-0.26,9.02,9.88,10.59,212.42,Stairs,2509.0,6.377042646472697e-05,6.377042646472697e-05,5.978477481068153e-05,0.01824631327222,0.0187285771223595,0.0190593862096452,0.000183339976086
1267776,-0.26,-0.26,-0.26,-5.55,-5.63,-5.67,212.92,Stairs,2509.0,0.0,-3.98565165404544e-06,0.0,-0.0058070944599442,-0.0061817457154244,-0.0064806695894778,0.0001992825827022
1270285,-0.32,-0.32,-0.32,-38.4,-38.69,-38.8,213.46,Stairs,2509.0,-2.3913909924272617e-05,-2.3913909924272617e-05,-2.3913909924272617e-05,-0.0130928656835392,-0.0131765643682742,-0.0132044639298525,0.0002152251893184
1272794,-0.55,-0.55,-0.53,2.82,2.23,1.73,213.75,Stairs,2509.0,-9.166998804304504e-05,-9.166998804304504e-05,-8.369868473495417e-05,0.0164288561179752,0.0163092865683539,0.0161538461538461,0.0001155838979673
1275303,-0.26,-0.26,-0.26,21.23,20.89,20.52,213.77,Stairs,2509.0,0.0001155838979673,0.0001155838979673,0.0001076125946592,0.0073375846950976,0.0074372259864487,0.0074890394579513,7.97130330809495e-06
1277812,-0.09,-0.09,-0.09,-32.85,-32.82,-32.78,213.57,Stairs,2509.0,6.775607811877243e-05,6.775607811877243e-05,6.775607811877243e-05,-0.0215544041450777,-0.021406935033878,-0.0212435233160621,-7.971303308091553e-05
1280321,-0.17,-0.17,-0.17,-3.27,-3.43,-3.54,213.25,Stairs,2509.0,-3.18852132323635e-05,-3.18852132323635e-05,-3.18852132323635e-05,0.0117895575926664,0.0117138302112395,0.0116540454364288,-0.0001275408529294
1282830,-0.46,-0.45,-0.45,1.76,1.27,0.74,212.91,Stairs,2509.0,-0.0001155838979673,-0.0001115982463132,-0.0001115982463132,0.0020047827819848,0.0018732562774013,0.0017058589079314,-0.0001355121562375
1287848,-0.36,-0.37,-0.37,3.97,3.66,3.5,212.13,Stairs,2509.0,-0.0001554404145077,-0.0001594260661618,-0.0001594260661618,0.0737146273415703,0.0740135512156237,0.074392188122758,-0.0001275408529294
1290356,-0.32,-0.32,-0.32,19.7,19.24,18.75,211.59,Stairs,2508.0,1.594896331738436e-05,1.993620414673046e-05,1.993620414673046e-05,0.0062719298245614,0.0062121212121212,0.0060805422647527,-0.0002153110047846
1292865,-0.16,-0.17,-0.17,-16.59,-16.31,-16.01,211.12,Stairs,2509.0,6.377042646472698e-05,5.9784774810681545e-05,5.9784774810681545e-05,-0.0144639298525308,-0.0141689916301315,-0.0138541251494619,-0.0001873256277401
1295374,-0.28,-0.29,-0.29,59.41,59.73,59.99,210.94,Stairs,2509.0,-4.782781984854525e-05,-4.782781984854522e-05,-4.782781984854522e-05,0.0302909525707453,0.0303068951773614,0.0302909525707453,-7.174172977282057e-05
1297883,-0.3,-0.3,-0.3,17.63,17.44,17.25,211.01,Stairs,2509.0,-7.971303308090858e-06,-3.98565165404544e-06,-3.98565165404544e-06,-0.0166520526106018,-0.0168553208449581,-0.0170346751693901,2.7899561578315336e-05
1300392,-0.41,-0.42,-0.42,65.06,65.6,65.98,211.25,Stairs,2509.0,-4.38421681944998e-05,-4.782781984854524e-05,-4.782781984854524e-05,0.0189039457951375,0.0191948983658828,0.0194220805101634,9.56556396970941e-05
1302901,-0.21,-0.21,-0.22,16.69,16.66,16.66,211.55,Stairs,2509.0,7.971303308090873e-05,8.369868473495416e-05,7.971303308090873e-05,-0.0192785970506177,-0.0195057791948983,-0.019657233957752,0.0001195695496213
1305410,-0.31,-0.31,-0.31,-70.63,-70.73,-70.9,211.97,Stairs,2509.0,-3.985651654045436e-05,-3.985651654045436e-05,-3.5870864886408924e-05,-0.0348027102431247,-0.034830609804703,-0.0348983658828218,0.0001673973694699
1307919,-0.24,-0.24,-0.24,88.07,87.02,86.08,212.41,Stairs,2509.0,2.7899561578318056e-05,2.7899561578318056e-05,2.7899561578318056e-05,0.063252291749701,0.0628736548425667,0.0625667596652052,0.0001753686727779
1310428,-0.29,-0.29,-0.29,-68.56,-68.34,-68.02,212.85,Stairs,2509.0,-1.992825827022718e-05,-1.992825827022718e-05,-1.992825827022718e-05,-0.0624272618573136,-0.0619210840972499,-0.0614188919888401,0.0001753686727779
1312937,-0.09,-0.09,-0.09,-34.13,-34.14,-34.1,213.44,Stairs,2509.0,7.971303308090873e-05,7.971303308090873e-05,7.971303308090873e-05,0.0137225986448784,0.0136309286568353,0.0135193304105221,0.0002351534475886
1315446,-0.26,-0.27,-0.27,-35.05,-34.87,-34.57,213.62,Stairs,2509.0,-6.775607811877243e-05,-7.174172977281786e-05,-7.174172977281786e-05,-0.0003666799521721,-0.0002909525707453,-0.0001873256277401,7.174172977282057e-05
1317955,-0.3,-0.29,-0.3,-15.42,-15.68,-15.94,213.54,Stairs,2509.0,-1.594260661618174e-05,-7.971303308090858e-06,-1.19569549621363e-05,0.0078238341968911,0.0076484655241131,0.0074252690314866,-3.188521323236847e-05
1320464,-0.12,-0.12,-0.13,0.27,0.08,-0.21,213.26,Stairs,2509.0,7.174172977281785e-05,6.775607811877242e-05,6.775607811877242e-05,0.0062534874451972,0.0062813870067756,0.0062694300518134,-0.0001115982463132
1322973,-0.17,-0.17,-0.18,-18.03,-17.44,-16.73,212.99,Stairs,2509.0,-1.992825827022719e-05,-1.992825827022719e-05,-1.992825827022718e-05,-0.0072937425269031,-0.0069828616978876,-0.006584296532483,-0.0001076125946592
1325482,-0.36,-0.36,-0.36,29.85,29.22,28.64,212.53,Stairs,2509.0,-7.572738142686328e-05,-7.572738142686328e-05,-7.174172977281785e-05,0.0190833001195695,0.018597050617776,0.0180829015544041,-0.000183339976086
1327991,-0.2,-0.2,-0.2,-89.08,-88.56,-87.99,212.19,Stairs,2509.0,6.377042646472697e-05,6.377042646472697e-05,6.377042646472697e-05,-0.0474013551215623,-0.0469430051813471,-0.0464846552411319,-0.0001355121562375
1330500,-0.52,-0.52,-0.52,-47.24,-47.84,-48.48,211.72,Stairs,2509.0,-0.0001275408529294,-0.0001275408529294,-0.0001275408529294,0.0166759665205261,0.016229573535273,0.0157473096851335,-0.0001873256277401
1333009,-0.23,-0.24,-0.23,43.92,44.71,45.53,211.2,Stairs,2509.0,0.0001155838979673,0.0001115982463132,0.0001155838979673,0.0363332004782782,0.0368872060581905,0.0374691111996811,-0.0002072538860103
1335518,-0.28,-0.28,-0.28,121.65,121.31,121.05,210.91,Stairs,2509.0,-1.992825827022719e-05,-1.594260661618176e-05,-1.992825827022719e-05,0.0309804703068951,0.030530091669988,0.0300996412913511,-0.0001155838979673
1338027,-0.6,-0.59,-0.6,58.32,57.07,56.29,210.95,Stairs,2509.0,-0.0001275408529294,-0.0001235552012754,-0.0001275408529294,-0.0252411319250697,-0.0256038262255878,-0.0258110801115982,1.5942606616178575e-05
1340536,-0.25,-0.25,-0.25,-47.61,-47.18,-46.86,211.01,Stairs,2509.0,0.0001394978078915,0.0001355121562375,0.0001394978078915,-0.0422200079713033,-0.0415504184934236,-0.0411119968114786,2.3913909924273525e-05
1343045,-0.23,-0.23,-0.23,67.44,67.21,67.01,211.26,Stairs,2509.0,7.97130330809087e-06,7.97130330809087e-06,7.97130330809087e-06,0.0458549222797927,0.0455918692706257,0.0453846153846153,9.964129135113592e-05
1345554,-0.28,-0.28,-0.28,0.93,0.95,0.91,211.6,Stairs,2509.0,-1.992825827022719e-05,-1.992825827022719e-05,-1.992825827022719e-05,-0.0265085691510561,-0.026408927859705,-0.0263451574332403,0.0001355121562375
1348063,-0.32,-0.31,-0.31,-73.91,-74.11,-74.34,211.91,Stairs,2509.0,-1.594260661618174e-05,-1.19569549621363e-05,-1.19569549621363e-05,-0.029828616978876,-0.029916301315265,-0.0299920286966919,0.0001235552012754
1350572,-0.34,-0.34,-0.34,78.65,78.73,78.69,212.38,Stairs,2509.0,-7.97130330809088e-06,-1.195695496213632e-05,-1.195695496213632e-05,0.0608051016341171,0.0609166998804304,0.0609924272618573,0.0001873256277401
1353081,-0.19,-0.19,-0.2,-8.63,-8.56,-8.45,212.88,Stairs,2509.0,5.978477481068155e-05,5.978477481068155e-05,5.579912315663611e-05,-0.0347867676365085,-0.0347907532881626,-0.0347309685133519,0.0001992825827022
1355590,-0.22,-0.21,-0.21,-45.7,-45.64,-45.52,213.38,Stairs,2509.0,-1.1956954962136309e-05,-7.97130330809087e-06,-3.985651654045429e-06,-0.0147748106815464,-0.0147787963332004,-0.0147748106815464,0.0001992825827022
1358099,-0.36,-0.36,-0.36,3.46,4.51,5.39,213.8,Stairs,2509.0,-5.5799123156636106e-05,-5.9784774810681545e-05,-5.9784774810681545e-05,0.0195934635312873,0.0199880430450378,0.0202909525707453,0.0001673973694699
1360608,-0.06,-0.06,-0.06,-18.21,-17.31,-16.27,213.89,Stairs,2509.0,0.0001195695496213,0.0001195695496213,0.0001195695496213,-0.0086369071343164,-0.0086966919091271,-0.0086329214826624,3.587086488639896e-05
1363117,-0.15,-0.16,-0.17,-12.66,-12.47,-12.32,213.83,Stairs,2509.0,-3.5870864886408924e-05,-3.985651654045436e-05,-4.384216819449981e-05,0.0022120366679952,0.0019290554005579,0.0015743324033479,-2.39139099242622e-05
1365626,-0.23,-0.23,-0.23,-0.98,-1.19,-1.48,213.56,Stairs,2509.0,-3.18852132323635e-05,-2.7899561578318056e-05,-2.3913909924272617e-05,0.004655241131925,0.0044958150657632,0.0043204463929852,-0.0001076125946592
1368135,-0.27,-0.27,-0.28,-21.79,-22.19,-22.62,213.34,Stairs,2509.0,-1.594260661618175e-05,-1.594260661618175e-05,-1.992825827022719e-05,-0.0082941410920685,-0.0083698684734954,-0.008425667596652,-8.768433638899914e-05
1370644,-0.24,-0.24,-0.24,-90.13,-90.31,-90.37,212.95,Stairs,2509.0,1.195695496213632e-05,1.195695496213632e-05,1.594260661618176e-05,-0.0272379434037465,-0.0271502590673575,-0.0270027899561578,-0.0001554404145077
1373153,-0.11,-0.11,-0.11,-33.59,-33.08,-32.58,212.5,Stairs,2509.0,5.1813471502590674e-05,5.1813471502590674e-05,5.1813471502590674e-05,0.0225348744519728,0.022809884416102,0.0230330809087285,-0.000179354324432
1375662,-0.23,-0.23,-0.22,99.33,99.13,98.86,211.96,Stairs,2509.0,-4.782781984854524e-05,-4.782781984854524e-05,-4.38421681944998e-05,0.0529772817855719,0.0526943005181347,0.0523874053407732,-0.0002152251893184
1378171,-0.39,-0.39,-0.39,35.13,35.81,36.32,211.39,Stairs,2509.0,-6.377042646472698e-05,-6.377042646472698e-05,-6.775607811877243e-05,-0.0255878836189717,-0.0252371462734157,-0.0249262654444001,-0.0002271821442805
1380680,-0.19,-0.19,-0.2,-5.4,-5.41,-5.47,211.11,Stairs,2509.0,7.971303308090873e-05,7.971303308090873e-05,7.57273814268633e-05,-0.0161538461538461,-0.0164288561179752,-0.0166560382622558,-0.0001115982463132
1383188,-0.48,-0.48,-0.48,13.56,13.12,12.68,211.12,Stairs,2508.0,-0.000115629984051,-0.000115629984051,-0.0001116427432216,0.0075598086124401,0.0073883572567783,0.0072368421052631,3.987240829342466e-06
1385697,-0.25,-0.24,-0.24,0.16,0.15,0.18,211.2,Stairs,2509.0,9.166998804304504e-05,9.565563969709048e-05,9.565563969709048e-05,-0.0053407732164208,-0.0051693901952969,-0.0049820645675567,3.188521323235715e-05
1388206,0.01,0.01,0.02,-42.52,-42.31,-42.36,211.45,Stairs,2509.0,0.0001036269430051,9.964129135113592e-05,0.0001036269430051,-0.0170107612594659,-0.0169230769230769,-0.0169549621363092,9.964129135113592e-05
1390715,-0.02,-0.02,-0.02,-12.99,-13.17,-13.28,211.76,Stairs,2509.0,-1.1956954962136309e-05,-1.1956954962136309e-05,-1.5942606616181746e-05,0.0117696293343961,0.0116141889198884,0.0115902750099641,0.0001235552012754
1393224,0.1,0.1,0.1,24.82,24.87,24.85,212.2,Stairs,2509.0,4.782781984854524e-05,4.782781984854524e-05,4.782781984854524e-05,0.0150697489039457,0.0151614188919888,0.0151972897568752,0.0001753686727779
1395733,0.24,0.24,0.25,19.81,19.86,19.76,212.65,Stairs,2509.0,5.5799123156636106e-05,5.5799123156636106e-05,5.9784774810681545e-05,-0.0019968114786767,-0.0019968114786767,-0.0020286966919091,0.000179354324432
1398242,-0.03,-0.03,-0.03,-16.24,-16.43,-16.58,213.17,Stairs,2509.0,-0.0001076125946592,-0.0001076125946592,-0.0001115982463132,-0.0143682742128337,-0.0144639298525308,-0.0144838581108011,0.0002072538860103
1400751,-0.29,-0.29,-0.29,-19.75,-20.33,-20.92,213.83,Stairs,2509.0,-0.0001036269430051,-0.0001036269430051,-0.0001036269430051,-0.0013989637305699,-0.0015544041450777,-0.0017297728178557,0.000263053009167
1405769,-0.04,-0.03,-0.03,-52.76,-52.96,-53.25,214.31,Stairs,2509.0,-9.964129135113592e-05,-9.166998804304504e-05,-9.166998804304504e-05,-0.0465603826225587,-0.0464567556795536,-0.0464328417696293,7.97130330809495e-06
1408278,-0.05,-0.05,-0.05,19.24,18.62,17.98,214.18,Stairs,2509.0,-3.985651654045437e-06,-7.971303308090875e-06,-7.971303308090875e-06,0.0286966919091271,0.0285292945396572,0.0283897967317656,-5.181347150258886e-05
1410786,0.06,0.07,0.06,9.01,8.89,8.83,213.88,Stairs,2508.0,4.385964912280702e-05,4.784688995215311e-05,4.385964912280702e-05,-0.004078947368421,-0.0038795853269537,-0.0036483253588516,-0.0001196172248803
1413295,-0.07,-0.07,-0.06,18.69,18.05,17.59,213.53,Stairs,2509.0,-5.1813471502590674e-05,-5.579912315663611e-05,-4.782781984854524e-05,0.0038581108011159,0.0036508569151056,0.0034914308489438,-0.0001394978078915
1415804,0.05,0.05,0.04,-41.26,-42.21,-43.34,213.11,Stairs,2509.0,4.782781984854524e-05,4.782781984854524e-05,3.985651654045436e-05,-0.0238939816660023,-0.0240175368672778,-0.0242845755280988,-0.0001673973694699
1418313,0.04,0.04,0.05,33.29,33.6,33.9,212.63,Stairs,2509.0,-3.985651654045437e-06,-3.985651654045437e-06,3.985651654045437e-06,0.0297130330809087,0.0302152251893184,0.0307851733758469,-0.0001913112793941
1420822,0.22,0.21,0.22,57.64,57.63,57.27,212.07,Stairs,2509.0,7.174172977281785e-05,6.775607811877242e-05,6.775607811877242e-05,0.0097050617776006,0.0095775209246711,0.0093144679155041,-0.0002231964926265
1423331,0.05,0.05,0.04,75.71,75.67,75.53,211.54,Stairs,2509.0,-6.775607811877242e-05,-6.377042646472697e-05,-7.174172977281785e-05,0.0072020725388601,0.0071901155838979,0.0072777999202869,-0.0002112395376644
1425840,-0.25,-0.25,-0.25,65.31,65.92,66.49,211.34,Stairs,2509.0,-0.0001195695496213,-0.0001195695496213,-0.0001155838979673,-0.0041450777202072,-0.0038860103626943,-0.003603029095257,-7.97130330809042e-05
1428349,-0.21,-0.21,-0.22,40.05,39.8,39.67,211.31,Stairs,2509.0,1.594260661618175e-05,1.594260661618175e-05,1.1956954962136309e-05,-0.0100677560781187,-0.0104105221203666,-0.0106895177361498,-1.1956954962136764e-05
1430858,-0.22,-0.23,-0.23,6.33,5.82,5.3,211.44,Stairs,2509.0,-3.98565165404544e-06,-7.97130330809088e-06,-3.98565165404544e-06,-0.0134396173774412,-0.0135432443204463,-0.0136986847349541,5.181347150258886e-05
1433367,-0.18,-0.17,-0.17,-38.13,-37.96,-37.92,211.65,Stairs,2509.0,1.594260661618175e-05,2.3913909924272617e-05,2.3913909924272617e-05,-0.017720207253886,-0.0174491829414109,-0.0172259864487843,8.369868473495733e-05
1435876,-0.35,-0.36,-0.35,57.31,57.17,57.08,211.92,Stairs,2509.0,-6.775607811877242e-05,-7.572738142686328e-05,-7.174172977281784e-05,0.0380390593862096,0.0379155041849342,0.0378636907134316,0.0001076125946592
1438385,-0.2,-0.2,-0.2,11.04,10.37,9.6,212.42,Stairs,2509.0,5.978477481068153e-05,6.377042646472697e-05,5.978477481068153e-05,-0.0184416102032682,-0.0186528497409326,-0.0189238740534077,0.0001992825827022
1440893,-0.19,-0.2,-0.2,19.12,19.89,20.66,212.98,Stairs,2508.0,3.987240829346096e-06,0.0,0.0,0.0032216905901116,0.0037958532695374,0.0044098883572567,0.0002232854864433
1443402,-0.07,-0.07,-0.07,17.86,18.06,18.11,213.62,Stairs,2509.0,4.782781984854524e-05,5.1813471502590674e-05,5.1813471502590674e-05,-0.0005021921084097,-0.0007293742526903,-0.0010163411717815,0.0002550817058589
1445911,-0.21,-0.21,-0.21,-27.92,-28.09,-28.28,214.16,Stairs,2509.0,-5.5799123156636106e-05,-5.5799123156636106e-05,-5.5799123156636106e-05,-0.01824631327222,-0.0183937823834196,-0.0184894380231167,0.0002152251893184
1448420,-0.27,-0.27,-0.27,-21.07,-19.14,-17.16,214.57,Stairs,2509.0,-2.3913909924272628e-05,-2.3913909924272628e-05,-2.3913909924272628e-05,0.0027301713830211,0.0035671582303706,0.0044320446392985,0.0001634117178158
1450929,-0.01,-0.01,-0.01,-26.87,-26.56,-26.13,214.51,Stairs,2509.0,0.0001036269430051,0.0001036269430051,0.0001036269430051,-0.0023116779593463,-0.0029573535273017,-0.0035751295336787,-2.3913909924273525e-05
1453438,-0.09,-0.08,-0.08,34.92,35.81,36.53,214.26,Stairs,2509.0,-3.188521323236349e-05,-2.7899561578318056e-05,-2.7899561578318056e-05,0.0246273415703467,0.0248585093662813,0.0249740932642487,-9.964129135113592e-05
1455947,-0.24,-0.24,-0.23,42.95,42.99,43.1,213.84,Stairs,2509.0,-5.9784774810681545e-05,-6.377042646472697e-05,-5.978477481068155e-05,0.0032004782781984,0.0028616978876046,0.0026185731367078,-0.0001673973694699
1458456,-0.18,-0.18,-0.19,41.79,42.61,43.36,213.47,Stairs,2509.0,2.3913909924272617e-05,2.3913909924272617e-05,1.594260661618175e-05,-0.0004623355918692,-0.0001514547628537,0.0001036269430051,-0.0001474691111996
1460965,-0.06,-0.06,-0.06,-56.54,-56.62,-56.7,213.0,Stairs,2509.0,4.782781984854524e-05,4.782781984854524e-05,5.1813471502590674e-05,-0.0391909127142287,-0.0395496213630928,-0.0398804304503786,-0.0001873256277401
1463474,-0.29,-0.29,-0.29,45.74,45.86,45.99,212.52,Stairs,2509.0,-9.166998804304504e-05,-9.166998804304504e-05,-9.166998804304504e-05,0.0407652451175767,0.0408449581506576,0.0409286568353925,-0.0001913112793941
1465983,-0.1,-0.11,-0.11,-55.44,-55.47,-55.4,211.92,Stairs,2509.0,7.572738142686328e-05,7.174172977281785e-05,7.174172977281785e-05,-0.0403268234356317,-0.0403866082104424,-0.0404105221203666,-0.0002391390992427
1468492,-0.36,-0.36,-0.37,-66.59,-67.47,-68.3,211.39,Stairs,2509.0,-0.0001036269430051,-9.964129135113592e-05,-0.0001036269430051,-0.0044440015942606,-0.0047827819848545,-0.0051414906337186,-0.0002112395376644
1471000,-0.22,-0.22,-0.23,66.0,66.16,66.3,211.17,Stairs,2508.0,5.582137161084529e-05,5.582137161084529e-05,5.582137161084529e-05,0.0528668261562998,0.0532814992025518,0.0536682615629984,-8.771929824561358e-05
1473509,-0.2,-0.2,-0.2,78.78,78.63,78.58,211.18,Stairs,2509.0,7.97130330809087e-06,7.97130330809087e-06,1.1956954962136309e-05,0.00509366281387,0.0049701076125946,0.0048943802311677,3.9856516540531394e-06
1476018,-0.22,-0.22,-0.22,-53.51,-53.74,-54.12,211.25,Stairs,2509.0,-7.97130330809087e-06,-7.97130330809087e-06,-7.97130330809087e-06,-0.052726185731367,-0.0527580709445994,-0.0528895974491829,2.7899561578315336e-05
1478527,-0.23,-0.23,-0.23,34.85,34.73,34.58,211.5,Stairs,2509.0,-3.98565165404544e-06,-3.98565165404544e-06,-3.98565165404544e-06,0.0352172180151454,0.0352610601833399,0.035352730171383,9.964129135113592e-05
1481036,-0.08,-0.08,-0.08,-6.73,-6.78,-6.81,211.71,Stairs,2509.0,5.978477481068155e-05,5.978477481068155e-05,5.978477481068155e-05,-0.0165723395775209,-0.0165444400159426,-0.016496612196094,8.369868473495733e-05
1483545,-0.31,-0.3,-0.3,21.46,22.06,22.61,212.07,Stairs,2509.0,-9.166998804304504e-05,-8.768433638899959e-05,-8.768433638899959e-05,0.011235552012754,0.011494619370267,0.0117257871662016,0.0001434834595456
1486053,-0.21,-0.21,-0.21,43.23,43.26,43.31,212.47,Stairs,2508.0,3.987240829346093e-05,3.5885167464114834e-05,3.5885167464114834e-05,0.0086802232854864,0.0084529505582137,0.0082535885167464,0.0001594896331738
1488562,-0.23,-0.23,-0.24,-72.85,-72.78,-72.78,212.96,Stairs,2509.0,-7.97130330809088e-06,-7.97130330809088e-06,-1.1956954962136309e-05,-0.0462654444001594,-0.0462495017935432,-0.0462694300518134,0.0001952969310482
1491070,-0.27,-0.27,-0.27,16.67,16.73,16.74,213.52,Stairs,2508.0,-1.594896331738437e-05,-1.594896331738437e-05,-1.1961722488038288e-05,0.0356937799043062,0.0356897926634768,0.0356937799043062,0.0002232854864433
1493578,-0.23,-0.23,-0.23,9.01,8.67,8.28,214.07,Stairs,2508.0,1.594896331738437e-05,1.594896331738437e-05,1.594896331738437e-05,-0.0030542264752791,-0.0032137161084529,-0.0033732057416267,0.000219298245614
1496087,-0.5,-0.49,-0.49,21.29,21.89,22.38,214.18,Stairs,2509.0,-0.0001076125946592,-0.0001036269430051,-0.0001036269430051,0.0048943802311677,0.005269031486648,0.005619768832204,4.384216819450524e-05
1498596,-0.27,-0.27,-0.27,47.99,47.44,46.82,214.12,Stairs,2509.0,9.166998804304504e-05,8.768433638899959e-05,8.768433638899959e-05,0.0106416899163013,0.010183339976086,0.009740932642487,-2.3913909924273525e-05
1501105,-0.21,-0.21,-0.21,-112.89,-113.41,-113.79,213.78,Stairs,2509.0,2.3913909924272628e-05,2.3913909924272628e-05,2.3913909924272628e-05,-0.0641211638102829,-0.0641092068553208,-0.0640135512156237,-0.0001355121562375
1503614,-0.28,-0.27,-0.27,58.47,58.22,57.91,213.45,Stairs,2509.0,-2.789956157831807e-05,-2.3913909924272628e-05,-2.3913909924272628e-05,0.0682981267437226,0.0684057393383818,0.0684336388999601,-0.0001315265045835
1506123,-0.02,-0.02,-0.02,-14.42,-14.4,-14.44,212.97,Stairs,2509.0,0.0001036269430051,9.964129135113592e-05,9.964129135113592e-05,-0.0290514149063371,-0.0289438023116779,-0.0288361897170187,-0.0001913112793941
1511141,-0.24,-0.23,-0.23,15.2,14.84,14.4,211.86,Stairs,5018.0,-4.38421681944998e-05,-4.1849342367477086e-05,-4.1849342367477086e-05,0.0059027500996412,0.0058270227182144,0.0057473096851335,-0.0002212036667995
1513650,-0.22,-0.22,-0.23,35.22,35.15,35.09,211.37,Stairs,2509.0,7.97130330809087e-06,3.98565165404544e-06,0.0,0.0079792746113989,0.0080948585093662,0.00824631327222,-0.0001952969310482
1516159,-0.31,-0.31,-0.31,-89.24,-89.4,-89.57,211.22,Stairs,2509.0,-3.5870864886408924e-05,-3.5870864886408924e-05,-3.1885213232363485e-05,-0.0496054204862494,-0.0496412913511359,-0.0496851335193304,-5.9784774810683815e-05
1518668,-0.4,-0.4,-0.39,94.08,94.58,95.11,211.26,Stairs,2509.0,-3.587086488640894e-05,-3.587086488640894e-05,-3.18852132323635e-05,0.0730649661219609,0.0733280191311279,0.0736070147469111,1.5942606616178575e-05
1521177,-0.23,-0.22,-0.22,-36.56,-36.98,-37.54,211.5,Stairs,2509.0,6.775607811877243e-05,7.174172977281786e-05,6.775607811877243e-05,-0.0520685532084495,-0.0524352331606217,-0.0528696691909127,9.56556396970941e-05
1523686,-0.18,-0.18,-0.18,-0.6,-0.53,-0.47,211.76,Stairs,2509.0,1.992825827022719e-05,1.594260661618175e-05,1.594260661618175e-05,0.0143324033479473,0.0145277002789956,0.0147748106815464,0.0001036269430051
1528704,-0.22,-0.22,-0.22,59.44,59.27,59.15,212.57,Stairs,5018.0,-7.971303308090875e-06,-7.971303308090875e-06,-7.971303308090875e-06,0.0119649262654444,0.0119170984455958,0.0118812275807094,0.0001614188919888
1531213,-0.09,-0.09,-0.1,-66.77,-66.69,-66.5,213.03,Stairs,2509.0,5.1813471502590674e-05,5.1813471502590674e-05,4.782781984854524e-05,-0.0503029095257074,-0.0502032682343563,-0.0500797130330809,0.000183339976086
1533722,-0.29,-0.29,-0.29,52.02,52.64,53.15,213.67,Stairs,2509.0,-7.971303308090873e-05,-7.971303308090873e-05,-7.572738142686328e-05,0.0473455559984057,0.0475607811877241,0.0476883220406536,0.0002550817058589
1536231,-0.19,-0.19,-0.19,23.07,22.55,22.13,214.24,Stairs,2509.0,3.985651654045436e-05,3.985651654045436e-05,3.985651654045436e-05,-0.0115384615384615,-0.0119928258270227,-0.0123634914308489,0.0002271821442805
1538740,-0.53,-0.53,-0.52,-80.23,-80.94,-81.6,214.45,Stairs,2509.0,-0.0001355121562375,-0.0001355121562375,-0.0001315265045834,-0.0411717815862893,-0.0412475089677162,-0.0413431646074133,8.369868473494601e-05
1541249,-0.37,-0.37,-0.37,48.36,49.21,49.97,214.39,Stairs,2509.0,6.3770426464727e-05,6.3770426464727e-05,5.978477481068155e-05,0.0512514946193702,0.0518732562774013,0.0524392188122758,-2.3913909924273525e-05
1543758,-0.32,-0.32,-0.32,0.2,-0.69,-1.57,214.04,Stairs,2509.0,1.992825827022718e-05,1.992825827022718e-05,1.992825827022718e-05,-0.0191948983658828,-0.0198884017536867,-0.0205420486249501,-0.0001394978078915
1546267,-0.18,-0.17,-0.17,-79.98,-81.11,-82.04,213.65,Stairs,2509.0,5.579912315663611e-05,5.9784774810681545e-05,5.9784774810681545e-05,-0.0319569549621363,-0.0320526106018334,-0.0320725388601036,-0.0001554404145077
1548776,-0.06,-0.06,-0.06,-33.62,-34.92,-36.24,213.24,Stairs,2509.0,4.782781984854524e-05,4.384216819449981e-05,4.384216819449981e-05,0.0184774810681546,0.0184097249900358,0.0182542845755281,-0.0001634117178158
1551285,-0.08,-0.08,-0.09,-87.02,-87.15,-87.19,212.7,Stairs,2509.0,-7.971303308090875e-06,-7.971303308090875e-06,-1.1956954962136309e-05,-0.0212833798326026,-0.0208170585890793,-0.0203068951773614,-0.0002152251893184
1553794,-0.12,-0.13,-0.13,-53.73,-54.2,-54.63,212.17,Stairs,2509.0,-1.5942606616181743e-05,-1.9928258270227185e-05,-1.594260661618175e-05,0.0132682343563172,0.0131327222000797,0.0129772817855719,-0.0002112395376644
1556303,-0.06,-0.06,-0.06,-41.19,-40.82,-40.62,211.56,Stairs,2509.0,2.3913909924272617e-05,2.7899561578318056e-05,2.7899561578318056e-05,0.0049980071741729,0.0053328019131127,0.0055838979673176,-0.0002431247508967
1558812,-0.26,-0.26,-0.26,65.16,63.97,62.75,211.04,Stairs,2509.0,-7.971303308090873e-05,-7.971303308090873e-05,-7.971303308090873e-05,0.0423874053407732,0.0417656436827421,0.0411996811478676,-0.0002072538860103
1561321,-0.11,-0.1,-0.1,37.96,38.34,38.77,210.97,Stairs,2509.0,5.978477481068155e-05,6.377042646472698e-05,6.377042646472698e-05,-0.0108409724990035,-0.0102152251893184,-0.0095575926664009,-2.7899561578315336e-05
1563830,-0.32,-0.32,-0.32,-4.75,-6.1,-7.27,211.05,Stairs,2509.0,-8.369868473495417e-05,-8.76843363889996e-05,-8.76843363889996e-05,-0.017022718214428,-0.0177122359505779,-0.0183499402152251,3.188521323236847e-05
1566339,-0.23,-0.22,-0.22,38.98,39.6,40.15,211.22,Stairs,2509.0,3.5870864886408924e-05,3.985651654045436e-05,3.985651654045436e-05,0.0174292546831406,0.0182144280589876,0.0188999601434834,6.775607811876743e-05
1568848,-0.24,-0.25,-0.25,23.82,24.83,25.84,211.6,Stairs,2509.0,-3.985651654045429e-06,-1.1956954962136309e-05,-1.1956954962136309e-05,-0.0060422479075328,-0.0058868074930251,-0.005703467516939,0.0001514547628537
1571357,-0.19,-0.18,-0.18,28.44,28.44,28.53,212.05,Stairs,2509.0,1.992825827022718e-05,2.7899561578318056e-05,2.7899561578318056e-05,0.0018413710641689,0.0014388202471104,0.0010721402949382,0.000179354324432
1573866,-0.27,-0.27,-0.27,-22.69,-22.71,-22.81,212.63,Stairs,2509.0,-3.18852132323635e-05,-3.587086488640894e-05,-3.587086488640894e-05,-0.0203786369071343,-0.0203866082104424,-0.0204623355918692,0.0002311677959346
1576375,-0.19,-0.19,-0.19,-43.77,-43.56,-43.31,213.13,Stairs,2509.0,3.18852132323635e-05,3.18852132323635e-05,3.18852132323635e-05,-0.0084017536867277,-0.0083100836986847,-0.0081705858907931,0.0001992825827022
1578884,-0.31,-0.31,-0.3,75.9,75.23,74.34,213.64,Stairs,2509.0,-4.782781984854524e-05,-4.782781984854524e-05,-4.38421681944998e-05,0.0476962933439617,0.0473455559984057,0.0468911917098445,0.0002032682343563
1581393,-0.18,-0.18,-0.18,19.22,18.82,18.4,214.22,Stairs,2509.0,5.1813471502590674e-05,5.1813471502590674e-05,4.782781984854524e-05,-0.0225906735751295,-0.0224830609804703,-0.0222957353527301,0.0002311677959346
