timestamp,accelX,accelY,accelZ,gyroX,gyroY,gyroZ,altitude,activity,delta_time,accelX_rate_of_change,accelY_rate_of_change,accelZ_rate_of_change,gyroX_rate_of_change,gyroY_rate_of_change,gyroZ_rate_of_change,altitude_rate_of_change
5559,0.03,0.03,0.03,-7.95,-8.0,-8.08,210.93,Lift,2509.0,1.5942606616181746e-05,1.5942606616181746e-05,1.9928258270227182e-05,-0.0034794738939816663,-0.003567158230370665,-0.003642885611797529,-0.00030689517736149133
8068,0.1,0.09,0.11,5.3,5.25,5.15,210.57,Lift,2509.0,2.7899561578318056e-05,2.3913909924272617e-05,3.188521323236349e-05,0.005280988441610204,0.005280988441610204,0.0052730171383021125,-0.00014348345954564115
10577,0.11,0.11,0.11,-5.85,-5.93,-5.94,210.79,Lift,2509.0,3.985651654045435e-06,7.971303308090875e-06,0.0,-0.004444001594260661,-0.004455958549222798,-0.004420087684336389,8.768433638899914e-05
13086,0.01,0.01,0.01,2.32,2.31,2.36,211.51,Lift,2509.0,-3.9856516540454363e-05,-3.9856516540454363e-05,-3.9856516540454363e-05,0.0032562774013551216,0.0032841769629334398,0.0033080908728577124,0.00028696691909127096
15594,0.05,0.05,0.05,-3.08,-3.04,-3.05,212.53,Lift,2508.0,1.594896331738437e-05,1.594896331738437e-05,1.594896331738437e-05,-0.0021531100478468903,-0.002133173843700159,-0.0021570972886762363,0.0004066985645933055
18103,-0.02,-0.02,-0.02,-9.04,-9.07,-9.14,213.65,Lift,2509.0,-2.7899561578318056e-05,-2.7899561578318056e-05,-2.7899561578318056e-05,-0.0023754483858110798,-0.0024033479473893984,-0.002427261857313671,0.0004463929852530907
20612,0.03,0.03,0.03,-0.76,-0.85,-0.85,214.51,Lift,2509.0,1.9928258270227182e-05,1.9928258270227182e-05,1.9928258270227182e-05,0.0033001195695496212,0.003276205659625349,0.0033041052212036673,0.0003427660422479016
23121,0.03,0.03,0.03,-1.02,-1.07,-1.16,215.2,Lift,2509.0,0.0,0.0,0.0,-0.00010362694300518135,-8.768433638899963e-05,-0.0001235552012754085,0.0002750099641291342
25630,0.0,0.0,0.0,-0.21,-0.11,-0.1,215.61,Lift,2509.0,-1.1956954962136309e-05,-1.1956954962136309e-05,-1.1956954962136309e-05,0.0003228377839776804,0.00038262255878836193,0.0004224790753288162,0.00016341171781587287
28139,0.01,0.01,0.01,-1.53,-1.6,-1.52,215.99,Lift,2509.0,3.9856516540454365e-06,3.9856516540454365e-06,3.9856516540454365e-06,-0.0005261060183339977,-0.00059386209645277,-0.000565962534874452,0.00015145476285372477
30648,0.02,0.02,0.02,-1.41,-1.51,-1.61,216.25,Lift,2509.0,3.9856516540454365e-06,3.9856516540454365e-06,3.9856516540454365e-06,4.782781984854528e-05,3.587086488640896e-05,-3.587086488640896e-05,0.00010362694300517772
33108,0.04,0.04,0.05,-4.18,-4.25,-4.28,217.72,Lift,2460.0,8.130081300813009e-06,8.130081300813009e-06,1.2195121951219513e-05,-0.0011260162601626014,-0.0011138211382113823,-0.0010853658536585365,0.0005975609756097557
33157,-0.0,0.0,0.0,-0.7,-0.63,-0.72,216.48,Lift,49.0,-0.0008163265306122449,-0.0008163265306122449,-0.0010204081632653062,0.0710204081632653,0.07387755102040816,0.0726530612244898,-0.025306122448979777
35617,0.05,0.06,0.06,-1.4,-1.36,-1.34,217.49,Lift,2460.0,2.032520325203252e-05,2.4390243902439022e-05,2.4390243902439022e-05,-0.0002845528455284553,-0.00029674796747967486,-0.0002520325203252033,0.0004105691056910648
35666,0.01,0.01,0.01,-0.5,-0.5,-0.56,216.58,Lift,49.0,-0.0008163265306122449,-0.001020408163265306,-0.001020408163265306,0.01836734693877551,0.017551020408163268,0.015918367346938776,-0.018571428571428503
38126,0.01,0.01,0.02,-1.18,-1.14,-0.98,216.8,Lift,2460.0,0.0,0.0,4.0650406504065046e-06,-0.00027642276422764223,-0.00026016260162601624,-0.00017073170731707313,8.943089430894263e-05
38175,0.02,0.02,0.02,-2.6,-2.64,-2.8,216.26,Lift,49.0,0.00020408163265306123,0.00020408163265306123,0.0,-0.028979591836734698,-0.03061224489795919,-0.03714285714285714,-0.011020408163265724
40635,0.02,0.02,0.03,-1.08,-1.18,-1.24,215.75,Lift,2460.0,0.0,0.0,4.065040650406504e-06,0.0006178861788617887,0.0005934959349593497,0.0006341463414634145,-0.00020731707317072802
40684,0.05,0.04,0.04,-2.32,-2.27,-2.17,215.58,Lift,49.0,0.0006122448979591838,0.00040816326530612246,0.00020408163265306126,-0.025306122448979586,-0.022244897959183677,-0.018979591836734692,-0.0034693877551017858
43144,0.02,0.02,0.02,-1.92,-1.75,-1.77,214.48,Lift,2460.0,-1.2195121951219513e-05,-8.130081300813009e-06,-8.130081300813009e-06,0.00016260162601626014,0.00021138211382113823,0.00016260162601626014,-0.0004471544715447247
43193,0.04,0.04,0.05,-0.58,-0.41,-0.38,214.58,Lift,49.0,0.00040816326530612246,0.00040816326530612246,0.0006122448979591838,0.027346938775510202,0.027346938775510206,0.028367346938775514,0.0020408163265310765
45653,0.03,0.03,0.02,-2.37,-2.44,-2.47,213.06,Lift,2460.0,-4.0650406504065046e-06,-4.0650406504065046e-06,-1.2195121951219513e-05,-0.0007276422764227643,-0.0008252032520325202,-0.0008495934959349595,-0.0006178861788617928
45702,0.05,0.05,0.05,-1.28,-1.11,-0.98,213.26,Lift,49.0,0.0004081632653061225,0.0004081632653061225,0.0006122448979591838,0.022244897959183677,0.02714285714285714,0.030408163265306126,0.004081632653060992
48162,0.01,0.01,0.01,-7.66,-7.68,-7.55,211.45,Lift,2460.0,-1.6260162601626018e-05,-1.6260162601626018e-05,-1.6260162601626018e-05,-0.0025934959349593494,-0.002670731707317073,-0.0026707317073170734,-0.0007357723577235782
50671,0.05,0.05,0.05,-2.08,-2.15,-2.23,209.8,Lift,2460.0,-1.2195121951219511e-05,-1.2195121951219511e-05,-1.2195121951219511e-05,0.0019796747967479674,0.001959349593495935,0.0019308943089430895,-0.0007886178861788609
53180,0.07,0.07,0.07,0.76,0.73,0.63,208.03,Lift,2460.0,5.284552845528456e-05,5.284552845528456e-05,5.284552845528456e-05,-0.00741869918699187,-0.0075,-0.007593495934959349,-0.0008861788617886207
55689,0.06,0.06,0.06,-0.21,-0.21,-0.23,206.33,Lift,2460.0,2.032520325203252e-05,2.032520325203252e-05,1.6260162601626015e-05,0.025528455284552845,0.025585365853658535,0.025613821138211385,-0.0008739837398373891
58198,0.03,0.03,0.03,-1.34,-1.27,-1.26,205.07,Lift,2461.0,2.8443722064201547e-05,3.2507110930516054e-05,2.8443722064201547e-05,-0.0014790735473384801,-0.0014018691588785048,-0.0013531084924827306,-0.0006867127184071506
60707,0.04,0.04,0.04,-1.27,-1.38,-1.45,204.12,Lift,2461.0,-4.8760666395774074e-05,-4.8760666395774074e-05,-4.8760666395774074e-05,0.006241365298659081,0.006156034132466478,0.006074766355140187,-0.0004469727752945934
63215,0.04,0.04,0.04,-0.45,-0.46,-0.31,203.59,Lift,2460.0,-3.6585365853658535e-05,-4.065040650406504e-05,-4.065040650406504e-05,0.00343089430894309,0.003451219512195121,0.003532520325203252,-0.0001707317073170681
65724,0.04,0.04,0.04,-1.76,-1.73,-1.79,203.06,Lift,2460.0,-2.032520325203252e-05,-2.032520325203252e-05,-2.032520325203252e-05,0.0003455284552845528,0.00032520325203252027,0.00028048780487804876,-3.6585365853659924e-05
68233,0.04,0.04,0.04,-2.95,-2.77,-2.6,202.68,Lift,2460.0,-2.032520325203252e-05,-2.032520325203252e-05,-1.6260162601626018e-05,0.005508130081300813,0.005723577235772359,0.005845528455284553,5.6910569105697066e-05
70742,0.05,0.04,0.04,-0.44,-0.39,-0.25,202.42,Lift,2460.0,-2.8455284552845524e-05,-2.845528455284553e-05,-2.845528455284553e-05,-0.009626016260162601,-0.009491869918699188,-0.009365853658536585,9.756097560974824e-05
73251,0.06,0.06,0.06,-1.28,-1.34,-1.44,202.33,Lift,2460.0,-8.130081300813009e-06,-8.130081300813009e-06,-1.2195121951219511e-05,0.0012926829268292681,0.0014146341463414636,0.0014796747967479676,0.0002032520325203252
75760,0.08,0.08,0.08,-1.08,-1.09,-1.04,202.73,Lift,2460.0,-1.6260162601626015e-05,-1.6260162601626015e-05,-1.6260162601626015e-05,0.0017845528455284552,0.0017357723577235773,0.0017235772357723578,0.00045528455284551874
78269,0.04,0.04,0.04,3.38,3.39,3.34,203.52,Lift,2460.0,-5.284552845528456e-05,-5.284552845528456e-05,-5.284552845528456e-05,-0.0006788617886178862,-0.0005731707317073169,-0.0005081300813008131,0.0007764227642276409
78318,0.02,0.03,0.03,7.44,7.44,7.44,202.23,Lift,49.0,-0.00040816326530612246,-0.00020408163265306126,-0.00020408163265306126,0.08285714285714287,0.08265306122448982,0.0836734693877551,-0.026326530612245314
80778,0.05,0.05,0.05,-1.12,-1.04,-0.96,204.59,Lift,2460.0,1.2195121951219513e-05,8.130081300813009e-06,8.130081300813009e-06,-0.003479674796747968,-0.0034471544715447156,-0.0034146341463414634,0.0009593495934959405
83287,0.04,0.05,0.05,-2.14,-2.21,-2.26,205.88,Lift,2460.0,2.4390243902439022e-05,2.845528455284553e-05,2.845528455284553e-05,-0.025402439024390246,-0.02561788617886179,-0.025800813008130082,0.0011300813008130086
85652,-0.14,-0.14,-0.14,0.58,0.54,0.56,214.07,Lift,2316.0,-9.067357512953368e-05,-9.067357512953368e-05,-9.067357512953368e-05,-0.01202504317789292,-0.012219343696027634,-0.012344559585492227,0.004235751295336788
88305,0.03,0.03,0.03,-2.73,-2.77,-2.79,208.89,Lift,2460.0,-3.6585365853658535e-05,-3.6585365853658535e-05,-3.6585365853658535e-05,-0.007857723577235774,-0.00798780487804878,-0.008134146341463413,0.0013455284552845422
88354,0.07,0.07,0.07,0.07,0.34,0.45,207.01,Lift,49.0,0.000816326530612245,0.000816326530612245,0.000816326530612245,0.05714285714285714,0.06346938775510204,0.06612244897959184,-0.038367346938775415
90814,0.01,0.01,0.01,1.83,1.95,2.11,210.57,Lift,2460.0,-2.4390243902439026e-05,-2.4390243902439026e-05,-2.4390243902439026e-05,0.0007154471544715447,0.0006544715447154471,0.0006747967479674797,0.0014471544715447164
93323,0.03,0.03,0.03,-2.56,-2.56,-2.59,212.34,Lift,2460.0,2.845528455284553e-05,2.845528455284553e-05,2.845528455284553e-05,0.004577235772357724,0.004467479674796748,0.004317073170731708,0.0014837398373983763
95832,0.04,0.04,0.04,4.19,4.18,4.11,213.79,Lift,2460.0,6.910569105691057e-05,6.910569105691057e-05,6.910569105691057e-05,0.0030650406504065045,0.0031585365853658534,0.0032032520325203256,0.0013739837398373965
98341,0.04,0.04,0.04,-1.71,-1.76,-1.83,214.92,Lift,2460.0,-2.032520325203252e-05,-2.032520325203252e-05,-2.032520325203252e-05,0.00908130081300813,0.008995934959349593,0.008873983739837398,0.0011138211382113743
98390,-0.0,-0.01,-0.0,2.02,1.99,2.07,213.64,Lift,49.0,-0.0008163265306122449,-0.0010204081632653062,-0.0008163265306122449,0.07612244897959183,0.07653061224489796,0.07959183673469387,-0.02612244897959186
100850,0.02,0.02,0.02,-3.16,-3.05,-3.0,215.76,Lift,2460.0,8.130081300813009e-06,1.2195121951219511e-05,8.130081300813009e-06,-0.002105691056910569,-0.002048780487804878,-0.0020609756097560977,0.0008617886178861807
100899,0.0,0.0,-0.0,-0.01,0.1,0.13,214.66,Lift,49.0,-0.00040816326530612246,-0.00040816326530612246,-0.00040816326530612246,0.0642857142857143,0.06428571428571428,0.06387755102040817,-0.02244897959183662
103359,0.01,0.01,0.01,-2.04,-2.0,-1.98,216.32,Lift,2460.0,4.0650406504065046e-06,4.0650406504065046e-06,4.0650406504065046e-06,-0.0008252032520325204,-0.0008536585365853659,-0.0008577235772357723,0.0006747967479674783
103408,0.0,-0.01,-0.01,-1.5,-1.51,-1.58,215.34,Lift,49.0,-0.00020408163265306123,-0.00040816326530612246,-0.00040816326530612246,0.011020408163265306,0.01,0.008163265306122448,-0.019999999999999792
105868,0.03,0.03,0.03,-0.32,-0.37,-0.33,216.67,Lift,2460.0,1.2195121951219511e-05,1.6260162601626018e-05,1.6260162601626018e-05,0.00047967479674796744,0.0004634146341463415,0.0005081300813008131,0.0005406504065040585
105917,-0.01,-0.01,-0.02,-1.15,-1.18,-1.27,215.82,Lift,49.0,-0.0008163265306122449,-0.0008163265306122449,-0.0010204081632653062,-0.01693877551020408,-0.01653061224489796,-0.019183673469387753,-0.01734693877551009
108377,0.03,0.03,0.03,-0.06,-0.06,-0.07,216.89,Lift,2460.0,1.6260162601626018e-05,1.6260162601626018e-05,2.032520325203252e-05,0.00044308943089430887,0.0004552845528455284,0.0004878048780487805,0.00043495934959349316
110885,0.04,0.04,0.04,-3.59,-3.66,-3.72,217.07,Lift,2459.0,2.846685644570964e-05,2.846685644570964e-05,2.846685644570964e-05,-0.001533143554290362,-0.001557543716958113,-0.0015982106547376984,0.00040666937779585197
113394,0.02,0.02,0.02,-4.85,-4.95,-5.0,217.03,Lift,2459.0,1.6266775111834078e-05,1.6266775111834078e-05,1.6266775111834078e-05,-0.0016266775111834077,-0.0016632777551850344,-0.0016632777551850344,0.0002643350955673061
113444,-0.03,-0.03,-0.03,-1.99,-1.93,-2.01,216.62,Lift,50.0,-0.001,-0.001,-0.001,0.05719999999999999,0.06040000000000001,0.059800000000000006,-0.008199999999999931
115902,0.03,0.03,0.04,2.37,2.36,2.35,216.6,Lift,2458.0,2.4410089503661513e-05,2.4410089503661513e-05,2.847843775427177e-05,0.00177379983726607,0.0017453213995117982,0.0017737998372660698,-8.136696501224667e-06
118411,0.04,0.04,0.05,1.87,1.82,1.79,215.75,Lift,2458.0,2.4410089503661513e-05,2.4410089503661513e-05,2.847843775427177e-05,0.0013018714401952809,0.0013018714401952809,0.0012611879576891782,-0.00031326281529699357
120920,0.02,0.02,0.02,-0.5,-0.61,-0.69,214.84,Lift,2458.0,2.0341741253051263e-05,2.4410089503661513e-05,2.4410089503661513e-05,-0.00011798209926769733,-0.00015052888527257934,-0.00015052888527257932,-0.0004475183075671254
123429,0.03,0.03,0.03,-0.45,-0.46,-0.39,214.17,Lift,2458.0,2.4410089503661513e-05,2.847843775427177e-05,2.847843775427177e-05,0.0011838893409275833,0.001159479251423922,0.0011554109031733115,-0.00034987794955248727
125938,0.03,0.03,0.04,0.13,0.18,0.12,213.72,Lift,2458.0,3.661513425549227e-05,3.661513425549227e-05,4.068348250610253e-05,0.0007973962571196094,0.0007323026851098454,0.0006224572823433685,-4.8820179007324876e-05
128447,0.02,0.02,0.02,-7.37,-7.43,-7.56,213.34,Lift,2458.0,2.847843775427177e-05,2.847843775427177e-05,2.847843775427177e-05,-0.0014727420667209113,-0.001468673718470301,-0.0015337672904800648,0.00038242473555736276
130956,0.03,0.04,0.04,0.82,0.73,0.72,213.12,Lift,2458.0,2.847843775427177e-05,3.254678600488202e-05,3.254678600488202e-05,0.0007404393816110658,0.000675345809601302,0.0006427990235964198,0.0009479251423921938
133465,0.03,0.03,0.03,1.66,1.55,1.4,212.97,Lift,2458.0,2.4410089503661513e-05,2.4410089503661513e-05,2.4410089503661513e-05,0.0009275834011391375,0.0008584214808787634,0.0008096013018714401,0.0015622457282343381
135974,0.01,0.01,0.02,-5.52,-5.54,-5.5,212.9,Lift,2458.0,1.627339300244101e-05,1.627339300244101e-05,2.0341741253051263e-05,-0.0011350691619202602,-0.0011432058584214808,-0.0011269324654190399,0.002233523189585032
136025,-0.01,-0.01,-0.01,1.21,1.4,1.36,205.78,Lift,51.0,-0.000392156862745098,-0.000392156862745098,-0.000588235294117647,0.1319607843137255,0.13607843137254902,0.13450980392156864,-0.139607843137255
138483,0.03,0.03,0.03,-2.73,-2.81,-2.89,213.14,Lift,2458.0,1.627339300244101e-05,1.627339300244101e-05,1.627339300244101e-05,-0.0016029292107404393,-0.001712774613506916,-0.0017290480065093572,0.0029943043124491396
140992,0.01,0.01,0.01,-9.64,-10.02,-10.24,213.81,Lift,2458.0,2.4410089503661517e-05,2.0341741253051263e-05,2.4410089503661517e-05,-0.004467046379170057,-0.004580960130187144,-0.004625711960943857,0.00376729048006509
143501,0.01,0.01,0.01,-5.79,-5.66,-5.61,214.79,Lift,2458.0,1.627339300244101e-05,1.627339300244101e-05,1.627339300244101e-05,-0.00145240032546786,-0.0014279902359641986,-0.001432058584214809,0.004507729861676153
146010,0.02,0.03,0.02,-1.29,-1.24,-1.23,215.58,Lift,2458.0,2.847843775427177e-05,3.254678600488202e-05,2.4410089503661513e-05,0.0015622457282343368,0.001647681041497152,0.0017087062652563056,0.00509357200976404
148519,0.03,0.03,0.03,1.65,1.42,1.25,216.24,Lift,2458.0,2.0341741253051263e-05,2.0341741253051263e-05,2.0341741253051263e-05,0.0012042310821806347,0.0011025223759153783,0.0010659072416598862,0.005565500406834828
151028,0.07,0.07,0.07,1.62,1.66,1.71,216.67,Lift,2458.0,2.4410089503661517e-05,2.4410089503661517e-05,2.4410089503661517e-05,0.00015459723352318963,0.00014646053702196903,0.00016273393002441005,0.005907241659886079
153537,0.05,0.05,0.05,1.32,1.45,1.66,216.89,Lift,2458.0,1.627339300244101e-05,1.627339300244101e-05,1.627339300244101e-05,0.0009113100081366966,0.0009967453213995119,0.0011065907241659884,0.006094385679414153
156046,0.09,0.09,0.09,-1.33,-1.31,-1.23,217.11,Lift,2458.0,4.4751830756712777e-05,4.4751830756712777e-05,4.4751830756712777e-05,0.0005085435313262816,0.0004190398698128559,0.00041090317331163556,0.006265256305939791
158555,0.06,0.06,0.05,0.42,0.34,0.29,217.25,Lift,2458.0,-4.068348250610256e-06,-4.068348250610256e-06,-8.136696501220507e-06,-0.00030919446704637916,-0.0002969894222945484,-0.0002563059397884459,0.0065459723352318975
161064,0.03,0.03,0.02,-0.65,-0.79,-0.91,217.35,Lift,2458.0,-1.6273393002441013e-05,-1.6273393002441013e-05,-2.0341741253051263e-05,-0.0022660699755899104,-0.00225793327908869,-0.0022091131000813668,0.006855166802278273
163573,0.03,0.03,0.03,2.08,2.25,2.48,217.32,Lift,2458.0,4.068348250610252e-06,4.068348250610252e-06,4.068348250610252e-06,-0.0006061838893409274,-0.0005207485760781122,-0.00043938161106590727,0.007030105777054516
166082,0.01,0.01,0.01,-4.74,-4.69,-4.7,216.77,Lift,2458.0,0.0,0.0,0.0,-0.0008177379983726608,-0.0007892595606183891,-0.000821806346623271,0.006965012205044753
168591,0.02,0.02,0.02,0.37,0.4,0.41,215.85,Lift,2458.0,8.136696501220505e-06,8.136696501220505e-06,8.136696501220505e-06,0.0004353132628152969,0.00039056143205858427,0.0003620829943043124,0.006688364524003254
171100,0.03,0.04,0.03,-0.82,-0.75,-0.64,214.67,Lift,2458.0,8.136696501220503e-06,1.2205044751830757e-05,8.136696501220503e-06,0.0003783563873067535,0.000402766476810415,0.00041497152156224574,0.006269324654190397
173609,0.06,0.05,0.05,-4.57,-4.56,-4.59,213.23,Lift,2458.0,2.8478437754271763e-05,2.4410089503661517e-05,2.4410089503661517e-05,-0.001663954434499593,-0.0016354759967453212,-0.0016232709519934906,0.005732302685109847
176118,0.05,0.05,0.05,-1.07,-1.02,-0.97,211.65,Lift,2458.0,3.254678600488202e-05,3.254678600488202e-05,3.254678600488202e-05,0.0016314076484947111,0.0016110659072416601,0.0016192026037428805,0.005117982099267703
178627,0.05,0.05,0.05,0.3,0.28,0.29,210.03,Lift,2458.0,2.847843775427177e-05,2.847843775427177e-05,2.847843775427177e-05,0.001965012205044752,0.002058584214808788,0.0021521562245728236,0.0043653376729047965
181136,0.05,0.05,0.05,-1.87,-1.85,-1.85,208.33,Lift,2458.0,2.847843775427177e-05,2.847843775427177e-05,2.847843775427177e-05,0.00043938161106590727,0.00048820179007323016,0.0005126118795768917,0.0033807973962571205
183645,0.06,0.06,0.06,-1.5,-1.43,-1.47,206.66,Lift,2458.0,2.8478437754271763e-05,2.8478437754271763e-05,2.8478437754271763e-05,0.00017900732302685108,0.0002034174125305126,0.00018714401952807158,0.002278275020341739
186154,0.09,0.09,0.09,0.31,0.26,0.19,205.41,Lift,2458.0,4.4751830756712777e-05,4.4751830756712777e-05,4.4751830756712777e-05,0.0010252237591537835,0.001045565500406835,0.0010455655004068347,0.0012286411716843004
188663,-0.01,-0.0,-0.01,-1.55,-1.7,-1.79,204.46,Lift,2458.0,2.034174125305126e-05,2.0341741253051263e-05,1.627339300244101e-05,-8.950366151342554e-05,-0.00018307567127746134,-0.00026444263628966645,0.00023596419853539973
188714,0.0,-0.0,0.0,-1.86,-1.85,-1.76,205.38,Lift,51.0,0.000196078431372549,0.0,0.000196078431372549,-0.006078431372549021,-0.002941176470588238,0.0005882352941176475,0.018039215686274264
191172,0.07,0.08,0.07,-4.78,-4.79,-4.9,203.76,Lift,2458.0,2.847843775427177e-05,3.254678600488202e-05,2.847843775427177e-05,-0.0011879576891781936,-0.0011960943856794142,-0.0012774613506916195,-0.0006590724165988627
193681,0.05,0.05,0.05,2.31,2.4,2.54,203.26,Lift,2458.0,3.254678600488202e-05,3.254678600488202e-05,3.254678600488202e-05,0.0019446704637917007,0.001952807160292921,0.0020260374288039056,-0.001521562245728238
193732,0.0,0.0,0.0,1.86,1.93,1.99,208.76,Lift,51.0,-0.000980392156862745,-0.000980392156862745,-0.000980392156862745,-0.008823529411764706,-0.009215686274509803,-0.010784313725490198,0.10784313725490197
196190,0.03,0.03,0.03,-0.28,-0.3,-0.34,202.88,Lift,2458.0,1.2205044751830757e-05,1.2205044751830757e-05,1.2205044751830757e-05,-0.0008706265256305941,-0.0009072416598860862,-0.0009479251423921888,-0.0023921887713588266
198699,0.03,0.03,0.03,1.15,1.05,0.92,202.63,Lift,2458.0,2.4410089503661513e-05,2.4410089503661513e-05,2.4410089503661513e-05,0.0023555736371033355,0.002323026851098454,0.00225793327908869,-0.0031814483319772143
201208,0.02,0.02,0.02,-3.02,-2.94,-3.01,202.5,Lift,2458.0,-8.136696501220505e-06,-8.136696501220505e-06,-8.136696501220505e-06,-0.0006143205858421481,-0.0005614320585842148,-0.0005736371033360454,-0.0037917005695687522
203717,0.06,0.06,0.06,0.66,0.48,0.28,202.43,Lift,2458.0,2.4410089503661513e-05,2.4410089503661513e-05,2.4410089503661513e-05,0.000838079739625712,0.0006875508543531326,0.0005126118795768917,-0.004446704637917008
206226,0.06,0.06,0.06,-5.4,-5.42,-5.44,202.42,Lift,2458.0,2.034174125305126e-05,2.034174125305126e-05,1.6273393002441007e-05,-0.0006834825061025224,-0.0007567127746135069,-0.0007729861676159481,-0.004898291293734752
208735,0.0,0.0,-0.0,-12.73,-12.61,-12.53,202.76,Lift,2459.0,-1.2200081333875558e-05,-1.2200081333875558e-05,-8.133387555917039e-06,-0.0027816185441236277,-0.0026799511996746643,-0.0026067507116714107,-0.005063033753558364
211244,0.04,0.04,0.04,1.39,1.54,1.73,203.54,Lift,2459.0,1.2200081333875558e-05,1.2200081333875558e-05,1.2200081333875558e-05,0.0020699471329808867,0.002167547783651891,0.0022570150467669785,-0.004961366409109401
213753,0.02,0.02,0.02,2.32,2.3,2.31,204.57,Lift,2509.0,-7.971303308090873e-06,-7.971303308090873e-06,-7.971303308090873e-06,0.00037066560382622557,0.00030290952570745307,0.00023116779593463534,0.0004105221203666804
216262,0.02,0.02,0.02,-11.4,-11.83,-12.22,205.95,Lift,2459.0,2.4400162667751116e-05,2.03334688897926e-05,2.4400162667751116e-05,-0.003684424562830419,-0.0038755591703944696,-0.004034160227734852,-0.004261895079300536
218771,-0.03,-0.03,-0.03,4.69,4.49,4.28,207.45,Lift,2459.0,-1.2200081333875558e-05,-1.2200081333875558e-05,-1.2200081333875558e-05,0.0023586823912159416,0.0022651484343228956,0.0021797478649857667,-0.0037413582757218453
221280,0.01,0.0,0.01,-1.11,-0.98,-1.01,209.01,Lift,2459.0,0.0,-4.0666937779585196e-06,-4.0666937779585196e-06,-0.0003497356649044327,-0.0003212688084587231,-0.0003660024400162668,-0.003082553883692563
221330,0.02,0.02,0.03,-5.44,-5.46,-5.45,216.08,Lift,50.0,0.0002,0.0004,0.00039999999999999996,-0.0866,-0.08960000000000001,-0.0888,0.14140000000000044
223789,0.01,0.01,0.01,-1.64,-1.71,-1.84,210.68,Lift,2459.0,-4.0666937779585196e-06,-4.0666937779585196e-06,-8.133387555917037e-06,0.0015453436356242377,0.0015250101667344449,0.0014680764538430257,-0.002196014640097603
223839,0.03,0.03,0.03,-1.87,-1.95,-1.85,215.23,Lift,50.0,0.00039999999999999996,0.00039999999999999996,0.00039999999999999996,-0.004600000000000004,-0.0048,-0.00020000000000000017,0.09099999999999966
226298,-0.01,-0.02,-0.02,-0.99,-0.91,-0.89,212.34,Lift,2459.0,-1.6266775111834078e-05,-2.03334688897926e-05,-2.03334688897926e-05,0.0003578690524603498,0.0004229361529076861,0.0003904026026840179,-0.0011752745018300066
226348,0.01,0.01,0.01,-1.17,-1.17,-1.18,214.11,Lift,50.0,0.0004,0.0006,0.0006,-0.0035999999999999986,-0.005199999999999998,-0.005799999999999999,0.0354000000000002
228807,-0.01,-0.01,-0.01,0.2,0.25,0.46,213.82,Lift,2459.0,-8.133387555917039e-06,-8.133387555917039e-06,-8.133387555917039e-06,0.0005571370475803172,0.0005774705164701098,0.0006669377795851972,-0.00011793411956080539
228857,0.0,0.01,0.0,4.02,4.09,4.19,212.73,Lift,50.0,0.0002,0.0004,0.0002,0.07639999999999998,0.0768,0.07460000000000001,-0.02180000000000007
231316,-0.02,-0.02,-0.02,-1.57,-1.66,-1.69,214.91,Lift,2459.0,-8.133387555917039e-06,-1.2200081333875558e-05,-8.133387555917039e-06,-0.0022732818218788127,-0.0023383489223261487,-0.00239121594143961,0.0008865392435949601
231366,0.02,0.02,0.02,3.5,3.49,3.36,211.26,Lift,50.0,0.0008,0.0008,0.0008,0.1014,0.10300000000000001,0.10099999999999999,-0.07300000000000012
233825,0.04,0.04,0.04,12.98,12.83,12.69,215.72,Lift,2459.0,8.133387555917039e-06,8.133387555917039e-06,8.133387555917039e-06,0.0038552257015046767,0.0037982919886132573,0.003794225294835299,0.001813745424969503
236334,0.04,0.04,0.04,4.27,4.3,4.37,216.37,Lift,2459.0,0.0,4.06669377795852e-06,0.0,0.0020333468889792597,0.002045546970313135,0.0020455469703131355,0.0027246848312322152
238843,0.01,0.01,0.01,-7.01,-7.04,-6.98,216.86,Lift,2459.0,-1.2200081333875558e-05,-1.2200081333875558e-05,-1.2200081333875558e-05,-0.0026433509556730377,-0.002708418056120374,-0.0027165514436762912,0.003603090687271254
241210,0.07,0.07,0.07,20.75,20.36,19.82,213.68,Lift,2317.0,4.315925766076828e-06,4.315925766076828e-06,4.315925766076828e-06,0.009352611135088477,0.00917134225291325,0.008951230038843332,0.0032067328441950827
241352,0.05,0.05,0.05,8.63,8.56,8.44,217.2,Lift,142.0,-0.00014084507042253525,-0.00014084507042253525,-0.00014084507042253525,-0.08535211267605633,-0.08309859154929576,-0.08014084507042255,0.02478873239436607
243861,0.04,0.04,0.04,-0.29,-0.37,-0.5,217.42,Lift,2459.0,-4.06669377795852e-06,-8.133387555917037e-06,-8.133387555917037e-06,0.00033753558357055714,0.00036193574623830826,0.0003212688084587231,0.005266368442456279
246370,0.06,0.06,0.06,-10.56,-10.54,-10.57,217.43,Lift,2459.0,4.066693777958518e-06,4.066693777958518e-06,4.066693777958518e-06,-0.003887759251728345,-0.0038999593330622203,-0.003936559577063847,0.005917039446929651
248879,0.08,0.08,0.08,-0.73,-0.69,-0.81,217.11,Lift,2459.0,2.03334688897926e-05,2.03334688897926e-05,2.03334688897926e-05,0.0020374135827572184,0.002000813338755592,0.0018625457503050021,0.006169174461163081
251388,0.03,0.03,0.03,-3.99,-4.18,-4.41,216.33,Lift,2459.0,-4.06669377795852e-06,-8.13338755591704e-06,-8.13338755591704e-06,-0.001032940219601464,-0.0011427409516063438,-0.0012606750711671411,0.006217974786498585
253897,0.04,0.04,0.04,0.62,0.82,0.82,215.22,Lift,2459.0,4.06669377795852e-06,4.06669377795852e-06,4.06669377795852e-06,0.0010858072387149248,0.0011630744204961367,0.001159007726718178,0.00603090687271249
256406,0.05,0.05,0.06,-3.11,-3.02,-3.02,213.9,Lift,2459.0,-4.066693777958518e-06,0.0,4.066693777958518e-06,-0.003090687271248475,-0.0030947539650264333,-0.00315982106547377,0.005701504676697848
258915,0.06,0.06,0.06,0.15,0.39,0.69,212.37,Lift,2459.0,1.2200081333875558e-05,1.2200081333875558e-05,1.2200081333875558e-05,0.00030093533956893043,0.0004229361529076861,0.0005571370475803173,0.005197234648230989
261424,0.04,0.04,0.04,-2.02,-1.96,-2.01,210.72,Lift,2459.0,4.06669377795852e-06,4.06669377795852e-06,4.06669377795852e-06,-0.0004351362342415616,-0.00040666937779585197,-0.00044733631557543704,0.0046156974379829175
263933,0.04,0.04,0.04,0.37,0.34,0.3,209.08,Lift,2459.0,-4.06669377795852e-06,-4.06669377795852e-06,-4.06669377795852e-06,0.0004920699471329809,0.000500203334688898,0.0005205368035786905,0.003920292801952019
266442,0.04,0.04,0.04,-1.96,-1.98,-1.98,207.4,Lift,2459.0,0.0,0.0,0.0,-0.0006628710858072387,-0.0006669377795851972,-0.0006466043106954046,0.0030012200081333856
266492,0.04,0.04,0.04,-2.5,-2.46,-2.44,201.02,Lift,50.0,0.0,0.0,0.0,-0.0108,-0.0096,-0.0092,-0.1275999999999999
268951,0.11,0.11,0.11,-28.41,-28.95,-29.5,205.97,Lift,2459.0,2.846685644570964e-05,2.846685644570964e-05,2.846685644570964e-05,-0.010536803578690525,-0.010772671817812118,-0.011004473363155754,0.0020130134200894625
271460,0.07,0.07,0.07,10.2,10.21,10.18,204.92,Lift,2459.0,4.066693777958523e-06,4.066693777958523e-06,4.066693777958523e-06,0.003940626270841806,0.003936559577063847,0.0039243594957299715,0.0011102074013826717
271510,0.04,0.04,0.04,-1.15,-1.24,-1.29,203.59,Lift,50.0,-0.0006000000000000002,-0.0006000000000000002,-0.0006000000000000002,-0.22699999999999998,-0.229,-0.22939999999999997,-0.026599999999999683
273969,0.02,0.02,0.02,-6.23,-6.15,-6.12,204.19,Lift,2459.0,-8.133387555917039e-06,-8.133387555917039e-06,-8.133387555917039e-06,-0.002065880439202928,-0.001996746644977633,-0.001964213094753965,0.00024400162667750886
276478,0.03,0.03,0.02,2.28,2.28,2.35,203.62,Lift,2509.0,3.985651654045436e-06,3.985651654045436e-06,0.0,0.003391789557592666,0.003359904344360303,0.003375846950976485,-0.00022718214428058716
278987,0.03,0.03,0.03,-4.3,-4.24,-4.18,203.16,Lift,2509.0,0.0,0.0,3.985651654045436e-06,-0.002622558788361897,-0.0025986448784376245,-0.0026026305300916697,-0.00018333997608609325
281496,0.03,0.02,0.02,-2.26,-2.18,-2.27,202.86,Lift,2509.0,0.0,-3.985651654045436e-06,-3.985651654045436e-06,0.000813072937425269,0.0008210442407333599,0.0007612594659226783,-0.0001195695496213563
284005,0.03,0.03,0.03,-1.73,-1.85,-1.9,202.68,Lift,2509.0,0.0,3.985651654045436e-06,3.985651654045436e-06,0.00021123953766440806,0.00013152650458349944,0.0001474691111996812,-7.174172977282057e-05
286514,0.02,0.02,0.02,1.88,1.92,2.02,202.96,Lift,2509.0,-3.985651654045436e-06,-3.985651654045436e-06,-3.985651654045436e-06,0.0014388202471104024,0.0015025906735751295,0.001562375448385811,0.00011159824631327267
289023,0.05,0.05,0.04,-0.23,-0.26,-0.31,203.68,Lift,2509.0,1.195695496213631e-05,1.195695496213631e-05,7.971303308090873e-06,-0.000840972499003587,-0.0008688720605819051,-0.0009286568353925867,0.00028696691909127096
291532,-0.02,-0.02,-0.03,-4.74,-4.73,-4.75,204.69,Lift,2509.0,-2.7899561578318056e-05,-2.7899561578318056e-05,-2.7899561578318056e-05,-0.0017975288959744917,-0.0017815862893583102,-0.001769629334396174,0.00040255081705858545
294041,0.02,0.02,0.02,-2.21,-2.27,-2.28,206.0,Lift,2509.0,1.5942606616181746e-05,1.5942606616181746e-05,1.9928258270227182e-05,0.0010083698684734954,0.0009804703068951775,0.0009844559585492228,0.000522120366679953
296550,0.07,0.07,0.08,-0.02,0.08,0.14,207.48,Lift,2509.0,1.9928258270227182e-05,1.9928258270227182e-05,2.3913909924272617e-05,0.0008728577122359506,0.0009366281387006776,0.0009645277002789956,0.0005898764447987206
299059,0.05,0.05,0.05,4.26,4.58,4.86,208.67,Lift,2509.0,-7.971303308090875e-06,-7.971303308090875e-06,-1.1956954962136309e-05,0.0017058589079314466,0.0017935432443204463,0.0018812275807094463,0.000474292546831406
301567,0.03,0.03,0.03,-0.06,0.04,0.11,210.29,Lift,2508.0,-7.974481658692186e-06,-7.974481658692186e-06,-7.974481658692186e-06,-0.0017224880382775117,-0.001810207336523126,-0.001893939393939394,0.0006459330143540688
304076,0.08,0.08,0.08,-4.56,-4.56,-4.59,211.98,Lift,2509.0,1.9928258270227182e-05,1.9928258270227182e-05,1.9928258270227182e-05,-0.0017935432443204463,-0.0018333997608609006,-0.0018732562774013552,0.0006735751295336779
306585,0.06,0.06,0.06,0.4,0.31,0.2,213.7,Lift,2509.0,-7.971303308090875e-06,-7.971303308090875e-06,-7.971303308090875e-06,0.0019768832204065364,0.0019410123555201272,0.001909127142287764,0.0006855320844958146
309094,0.02,0.03,0.02,-3.08,-3.14,-3.09,215.05,Lift,2509.0,-1.5942606616181743e-05,-1.1956954962136309e-05,-1.5942606616181743e-05,-0.0013870067756078118,-0.0013750498206456757,-0.0013112793941809486,0.000538062973296143
311603,0.03,0.03,0.04,-6.81,-6.82,-6.78,216.07,Lift,2509.0,3.985651654045436e-06,0.0,7.971303308090873e-06,-0.0014866480669589476,-0.0014667198086887206,-0.0014707054603427662,0.0004065364687126273
314112,0.06,0.06,0.06,4.42,4.46,4.52,216.78,Lift,2509.0,1.1956954962136309e-05,1.1956954962136309e-05,7.971303308090871e-06,0.004475886807493026,0.004495815065763253,0.004503786369071344,0.0002829812674372292
316621,0.07,0.07,0.07,-5.38,-5.48,-5.69,217.31,Lift,2509.0,3.98565165404544e-06,3.98565165404544e-06,3.98565165404544e-06,-0.003905938620964528,-0.003961737744121164,-0.004069350338780391,0.00021123953766440858
319130,-0.01,-0.01,-0.01,-1.99,-2.19,-2.3,217.67,Lift,2509.0,-3.188521323236349e-05,-3.188521323236349e-05,-3.188521323236349e-05,0.0013511359107214029,0.0013112793941809488,0.001351135910721403,0.00014348345954562982
321639,0.03,0.03,0.03,0.92,0.82,0.71,217.95,Lift,2509.0,1.5942606616181746e-05,1.5942606616181746e-05,1.5942606616181746e-05,0.0011598246313272221,0.0011996811478676762,0.0011996811478676762,0.00011159824631327267
324148,0.03,0.03,0.03,3.81,3.79,3.86,218.04,Lift,2509.0,0.0,0.0,0.0,0.0011518533280191312,0.0011837385412514947,0.0012554802710243124,3.5870864886410286e-05
326657,-0.11,-0.11,-0.11,1.92,1.96,1.95,217.61,Lift,2509.0,-5.579912315663611e-05,-5.579912315663611e-05,-5.579912315663611e-05,-0.0007532881626145876,-0.0007293742526903149,-0.0007612594659226783,-0.00017138302112394514
329166,-0.04,-0.04,-0.04,-3.77,-3.76,-3.77,216.8,Lift,2509.0,2.7899561578318056e-05,2.7899561578318056e-05,2.7899561578318056e-05,-0.002267835791151853,-0.0022797927461139897,-0.0022797927461139897,-0.00032283778397768125
331675,-0.01,-0.0,-0.0,0.1,0.18,0.27,215.69,Lift,2509.0,1.1956954962136309e-05,1.5942606616181746e-05,1.5942606616181746e-05,0.001542447190115584,0.001570346751693902,0.0016102032682343563,-0.0004424073335990489
334184,0.05,0.05,0.05,-1.31,-1.33,-1.4,214.37,Lift,2509.0,2.391390992427262e-05,1.9928258270227182e-05,1.9928258270227182e-05,-0.0005619768832204066,-0.0006018333997608609,-0.0006656038262255879,-0.0005261060183339948
336693,0.03,0.03,0.04,0.16,0.21,0.24,212.93,Lift,2509.0,-7.971303308090875e-06,-7.971303308090875e-06,-3.985651654045437e-06,0.0005858907931446791,0.0006137903547229972,0.0006536468712634515,-0.0005739338381825419
339202,0.03,0.03,0.03,-2.01,-2.04,-2.11,211.33,Lift,2509.0,0.0,0.0,-3.985651654045437e-06,-0.0008648864089278597,-0.0008967716221602232,-0.0009366281387006775,-0.0006377042646472675
341711,0.04,0.04,0.04,-1.73,-1.73,-1.8,209.61,Lift,2509.0,3.985651654045437e-06,3.985651654045437e-06,3.985651654045437e-06,0.00011159824631327214,0.00012355520127540855,0.00012355520127540847,-0.0006855320844958146
344220,0.04,0.05,0.05,1.23,1.06,0.82,207.88,Lift,2509.0,0.0,3.985651654045437e-06,3.985651654045437e-06,0.0011797528895974491,0.0011119968114786769,0.0010442407333599044,-0.0006895177361498678
346729,-0.01,-0.01,-0.01,6.19,6.26,6.3,206.59,Lift,2509.0,-1.9928258270227182e-05,-2.391390992427262e-05,-2.391390992427262e-05,0.001976883220406537,0.002072538860103627,0.002184137106416899,-0.0005141490633718581
349238,0.04,0.04,0.04,-0.38,-0.38,-0.47,205.39,Lift,2509.0,1.9928258270227182e-05,1.9928258270227182e-05,1.9928258270227182e-05,-0.002618573136707852,-0.0026464726982861697,-0.00269828616978876,-0.0004782781984854592
351747,0.02,0.02,0.02,0.53,0.53,0.58,204.51,Lift,2509.0,-7.971303308090873e-06,-7.971303308090873e-06,-7.971303308090873e-06,0.00036269430051813473,0.00036269430051813473,0.00041849342367477076,-0.0003507373455559966
354256,0.01,0.01,0.01,-1.81,-1.74,-1.66,203.9,Lift,2509.0,-3.9856516540454365e-06,-3.9856516540454365e-06,-3.9856516540454365e-06,-0.0009326424870466321,-0.0009047429254683141,-0.0008927859705061777,-0.00024312475089676574
356765,0.01,0.01,0.01,-0.82,-0.79,-0.73,203.4,Lift,2509.0,0.0,0.0,0.0,0.00039457951375049824,0.00037863690713431646,0.00037066560382622557,-0.00019928258270227183
359274,-0.0,0.0,0.0,-3.15,-3.17,-3.06,203.08,Lift,2509.0,-3.9856516540454365e-06,-3.9856516540454365e-06,-3.9856516540454365e-06,-0.0009286568353925867,-0.0009485850936628138,-0.0009286568353925867,-0.00012754085292945126
361783,0.03,0.03,0.03,-0.73,-0.77,-0.83,202.87,Lift,2509.0,1.1956954962136309e-05,1.1956954962136309e-05,1.1956954962136309e-05,0.0009645277002789956,0.0009565563969709047,0.0008888003188521323,-8.369868473495733e-05
364292,0.02,0.02,0.02,-2.34,-2.37,-2.37,202.52,Lift,2509.0,-3.985651654045436e-06,-3.985651654045436e-06,-3.985651654045436e-06,-0.0006416899163013152,-0.0006377042646472698,-0.0006137903547229972,-0.000139497807891588
366801,0.0,0.0,0.0,-1.36,-1.27,-1.31,201.95,Lift,2509.0,-7.971303308090873e-06,-7.971303308090873e-06,-7.971303308090873e-06,0.00039059386209645266,0.00043842168194499807,0.0004224790753288163,-0.0002271821442805985
369310,0.0,0.0,0.0,-0.11,-0.08,-0.05,201.37,Lift,2509.0,0.0,0.0,0.0,0.0004982064567556796,0.0004742925468314069,0.000502192108409725,-0.00023116779593462897
371819,0.01,0.01,0.01,-7.75,-8.1,-8.34,200.93,Lift,2509.0,3.9856516540454365e-06,3.9856516540454365e-06,3.9856516540454365e-06,-0.003045037863690713,-0.00319649262654444,-0.0033041052212036664,-0.0001753686727779983
374328,-0.02,-0.02,-0.02,-19.79,-19.47,-19.08,200.68,Lift,2509.0,-1.1956954962136309e-05,-1.1956954962136309e-05,-1.1956954962136309e-05,-0.004798724591470705,-0.004531685930649661,-0.004280589876444798,-9.964129135113592e-05
376837,-0.01,-0.01,-0.01,-2.44,-2.56,-2.63,200.41,Lift,2509.0,3.9856516540454365e-06,3.9856516540454365e-06,3.9856516540454365e-06,0.006915105619768831,0.0067397369469908335,0.006556396970904743,-0.00010761259465923086
379345,-0.01,-0.01,-0.01,4.17,4.24,4.14,200.25,Lift,2508.0,0.0,0.0,0.0,0.002635566188197767,0.0027113237639553433,0.0026993620414673043,-6.379585326953612e-05
381854,-0.01,-0.01,-0.01,-2.39,-2.26,-2.21,200.14,Lift,2509.0,0.0,0.0,0.0,-0.0026145874850538064,-0.0025906735751295338,-0.002530888800318852,-4.384216819450524e-05
384363,0.01,0.02,0.01,1.11,0.98,0.95,200.1,Lift,2509.0,7.971303308090873e-06,1.1956954962136309e-05,7.971303308090873e-06,0.0013949780789159027,0.0012913511359107213,0.001259465922678358,-1.5942606616178575e-05
386872,0.0,-0.0,-0.0,1.15,1.19,1.2,200.0,Lift,2509.0,-3.9856516540454365e-06,-7.971303308090873e-06,-3.9856516540454365e-06,1.594260661618167e-05,8.369868473495415e-05,9.964129135113592e-05,-3.98565165404521e-05
389381,0.03,0.04,0.04,-0.82,-0.86,-0.88,199.99,Lift,2509.0,1.1956954962136309e-05,1.5942606616181746e-05,1.5942606616181746e-05,-0.0007851733758469509,-0.0008170585890793144,-0.0008290155440414508,-3.985651654041811e-06
391890,-0.01,-0.01,-0.01,-0.19,-0.17,-0.28,200.39,Lift,2509.0,-1.5942606616181746e-05,-1.9928258270227182e-05,-1.9928258270227182e-05,0.00025109605420486246,0.0002750099641291351,0.00023913909924272618,0.0001594260661618084
394399,-0.0,-0.0,-0.0,-1.22,-1.15,-1.26,201.2,Lift,2509.0,3.9856516540454365e-06,3.9856516540454365e-06,3.9856516540454365e-06,-0.00041052212036667997,-0.0003905938620964527,-0.00039059386209645277,0.00032283778397768125
396908,-0.02,-0.02,-0.01,-1.03,-1.0,-1.06,202.28,Lift,2509.0,-7.971303308090873e-06,-7.971303308090873e-06,-3.9856516540454365e-06,7.572738142686327e-05,5.978477481068151e-05,7.971303308090871e-05,0.0004304503786369121
399417,-0.0,-0.0,-0.0,-1.19,-1.31,-1.37,203.31,Lift,2509.0,7.971303308090873e-06,7.971303308090873e-06,3.9856516540454365e-06,-6.377042646472696e-05,-0.00012355520127540855,-0.00012355520127540855,0.0004105221203666804
401926,-0.01,-0.01,-0.01,-2.21,-2.24,-2.31,204.76,Lift,2509.0,-3.9856516540454365e-06,-3.9856516540454365e-06,-3.9856516540454365e-06,-0.0004065364687126345,-0.0003706656038262257,-0.000374651255480271,0.0005779194898365837
404435,-0.01,-0.01,-0.01,-1.64,-1.74,-1.8,206.28,Lift,2509.0,0.0,0.0,0.0,0.0002271821442805899,0.0001992825827022719,0.00020326823435631725,0.0006058190514149104
406944,-0.01,-0.01,-0.0,-1.74,-1.74,-1.7,207.9,Lift,2509.0,0.0,0.0,3.9856516540454365e-06,-3.98565165404544e-05,0.0,3.98565165404544e-05,0.0006456755679553625
409453,0.01,0.0,0.0,-4.6,-4.6,-4.64,209.55,Lift,2509.0,7.971303308090873e-06,3.9856516540454365e-06,0.0,-0.0011398963730569946,-0.0011398963730569946,-0.0011717815862893582,0.0006576325229174992
411962,-0.02,-0.02,-0.02,-0.18,-0.27,-0.25,211.18,Lift,2509.0,-1.1956954962136309e-05,-7.971303308090873e-06,-7.971303308090873e-06,0.0017616580310880828,0.001725787166201674,0.0017497010761259465,0.0006496612196094043
414471,0.01,0.01,0.01,-2.29,-2.31,-2.4,212.5,Lift,2509.0,1.1956954962136309e-05,1.1956954962136309e-05,1.1956954962136309e-05,-0.000840972499003587,-0.000813072937425269,-0.0008569151056197688,0.0005261060183339948
416980,0.05,0.05,0.05,-2.4,-2.36,-2.37,213.49,Lift,2509.0,1.5942606616181746e-05,1.5942606616181746e-05,1.5942606616181746e-05,-4.384216819449975e-05,-1.992825827022711e-05,1.195695496213623e-05,0.0003945795137505018
419489,0.05,0.05,0.05,-1.08,-0.98,-0.84,214.28,Lift,2509.0,0.0,0.0,0.0,0.0005261060183339975,0.0005500199282582702,0.0006098047030689518,0.0003148664806695863
421998,0.01,0.01,0.01,-2.85,-2.85,-2.74,214.73,Lift,2509.0,-1.5942606616181746e-05,-1.5942606616181746e-05,-1.5942606616181746e-05,-0.0007054603427660422,-0.0007453168593064966,-0.000757273814268633,0.0001793543244320401
424507,-0.02,-0.02,-0.02,-0.82,-0.85,-0.76,215.05,Lift,2509.0,-1.1956954962136309e-05,-1.1956954962136309e-05,-1.1956954962136309e-05,0.0008090872857712237,0.0007971303308090873,0.0007891590275009965,0.0001275408529294626
427016,-0.04,-0.04,-0.04,-1.37,-1.33,-1.28,215.32,Lift,2509.0,-7.971303308090873e-06,-7.971303308090873e-06,-7.971303308090873e-06,-0.00021921084097249906,-0.000191311279394181,-0.0002072538860103627,0.00010761259465921953
429525,-0.02,-0.01,-0.01,0.98,0.93,0.84,215.49,Lift,2509.0,7.971303308090873e-06,1.1956954962136309e-05,1.1956954962136309e-05,0.0009366281387006776,0.0009007572738142688,0.0008449581506576326,6.775607811877876e-05
432034,-0.04,-0.04,-0.04,-2.72,-2.67,-2.66,215.79,Lift,2509.0,-7.971303308090873e-06,-1.1956954962136309e-05,-1.1956954962136309e-05,-0.0014746911119968115,-0.0014348345954563572,-0.0013949780789159027,0.0001195695496213563
434543,0.0,0.0,0.0,0.53,0.5,0.49,216.44,Lift,2509.0,1.5942606616181746e-05,1.5942606616181746e-05,1.5942606616181746e-05,0.0012953367875647669,0.0012634515743324033,0.0012554802710243126,0.00025906735751295563
437052,-0.01,-0.0,-0.0,-1.95,-1.79,-1.7,217.12,Lift,2509.0,-3.9856516540454365e-06,-0.0,-0.0,-0.0009884416102032682,-0.000912714228776405,-0.0008728577122359506,0.0002710243124750924
439561,-0.01,-0.01,-0.01,-1.15,-1.13,-1.19,217.65,Lift,2509.0,0.0,-3.9856516540454365e-06,-3.9856516540454365e-06,0.0003188521323236349,0.0002630530091669989,0.00020326823435631725,0.00021123953766440858
444579,-0.04,-0.04,-0.03,2.76,2.6,2.63,218.29,Lift,5018.0,-5.978477481068154e-06,-5.978477481068154e-06,-3.985651654045436e-06,0.0007791948983658827,0.0007433240334794739,0.0007612594659226783,0.00012754085292945126
447088,0.05,0.05,0.06,-0.98,-1.21,-1.28,218.44,Lift,2509.0,3.5870864886408924e-05,3.5870864886408924e-05,3.5870864886408924e-05,-0.0014906337186129932,-0.0015185332801913112,-0.0015583897967317657,5.9784774810683815e-05
449597,0.03,0.04,0.03,-0.66,-0.73,-0.76,218.57,Lift,2509.0,-7.971303308090875e-06,-3.985651654045437e-06,-1.1956954962136309e-05,0.00012754085292945394,0.00019131127939418094,0.0002072538860103627,5.181347150258886e-05
452106,0.04,0.04,0.04,-2.21,-2.27,-2.29,218.65,Lift,2509.0,3.985651654045437e-06,0.0,3.985651654045437e-06,-0.0006177760063770426,-0.0006137903547229972,-0.0006098047030689518,3.188521323236847e-05
454615,0.03,0.03,0.03,-1.4,-1.34,-1.45,218.51,Lift,2509.0,-3.985651654045437e-06,-3.985651654045437e-06,-3.985651654045437e-06,0.0003228377839776804,0.00037066560382622557,0.0003347947389398167,-5.5799123156642e-05
457124,0.04,0.04,0.04,-1.74,-1.76,-1.69,217.97,Lift,2509.0,3.985651654045437e-06,3.985651654045437e-06,3.985651654045437e-06,-0.00013551215623754486,-0.0001673973694699083,-9.565563969709047e-05,-0.0002152251893184504
459633,0.05,0.05,0.05,-0.73,-0.73,-0.58,216.92,Lift,2509.0,3.985651654045437e-06,3.985651654045437e-06,3.985651654045437e-06,0.0004025508170585891,0.00041052212036667997,0.0004424073335990434,-0.00041849342367477536
462142,0.02,0.02,0.02,-0.6,-0.68,-0.74,215.84,Lift,2509.0,-1.195695496213631e-05,-1.195695496213631e-05,-1.195695496213631e-05,5.1813471502590674e-05,1.9928258270227155e-05,-6.3770426464727e-05,-0.0004304503786369008
464651,0.04,0.04,0.04,-1.76,-1.61,-1.71,215.05,Lift,2509.0,7.971303308090873e-06,7.971303308090873e-06,7.971303308090873e-06,-0.0004623355918692707,-0.0003706656038262256,-0.0003866082104424073,-0.0003148664806695863
467159,0.03,0.03,0.03,-1.86,-1.89,-1.88,214.49,Lift,2508.0,-3.987240829346093e-06,-3.987240829346093e-06,-3.987240829346093e-06,-3.987240829346096e-05,-0.00011164274322169052,-6.778309409888355e-05,-0.0002232854864433821
469668,0.02,0.02,0.02,-1.76,-1.73,-1.73,214.15,Lift,2509.0,-3.985651654045436e-06,-3.985651654045436e-06,-3.985651654045436e-06,3.98565165404544e-05,6.377042646472696e-05,5.978477481068151e-05,-0.0001355121562375462
472177,0.03,0.03,0.03,-1.7,-1.56,-1.58,213.86,Lift,2509.0,3.985651654045436e-06,3.985651654045436e-06,3.985651654045436e-06,2.391390992427264e-05,6.775607811877239e-05,5.978477481068151e-05,-0.00011558389796731449
474686,0.04,0.04,0.04,-2.59,-2.64,-2.72,213.7,Lift,2509.0,3.985651654045437e-06,3.985651654045437e-06,3.985651654045437e-06,-0.0003547229972100438,-0.0004304503786369072,-0.0004543642885611798,-6.377042646473695e-05
477195,0.03,0.03,0.03,2.98,3.1,3.22,213.54,Lift,2509.0,-3.985651654045437e-06,-3.985651654045437e-06,-3.985651654045437e-06,0.002220007971303308,0.0022877640494220804,0.0023674770825029895,-6.377042646472563e-05
479704,0.0,0.0,0.01,-4.86,-4.98,-5.03,213.44,Lift,2509.0,-1.1956954962136309e-05,-1.1956954962136309e-05,-7.971303308090871e-06,-0.003124750896771622,-0.0032204065364687126,-0.003288162614587485,-3.98565165404521e-05
482213,0.04,0.05,0.04,-3.69,-3.8,-3.89,213.3,Lift,2509.0,1.5942606616181746e-05,1.9928258270227182e-05,1.1956954962136309e-05,0.0004663212435233162,0.00047030689517736174,0.0004543642885611798,-5.579912315663067e-05
484722,0.04,0.04,0.04,-1.04,-1.01,-1.04,212.89,Lift,2509.0,0.0,-3.985651654045437e-06,0.0,0.0010561976883220407,0.0011119968114786769,0.0011359107214029495,-0.00016341171781587287
487231,0.06,0.06,0.06,-2.04,-2.12,-2.16,212.14,Lift,2509.0,7.971303308090871e-06,7.971303308090871e-06,7.971303308090871e-06,-0.00039856516540454366,-0.0004424073335990435,-0.0004463929852530889,-0.0002989238740534077
489740,0.04,0.04,0.04,-1.77,-1.74,-1.76,211.12,Lift,2509.0,-7.971303308090871e-06,-7.971303308090871e-06,-7.971303308090871e-06,0.0001076125946592268,0.00015145476285372664,0.0001594260661618175,-0.0004065364687126273
492249,0.04,0.04,0.04,-4.22,-4.24,-4.18,209.89,Lift,2509.0,0.0,0.0,0.0,-0.0009764846552411319,-0.0009964129135113591,-0.0009645277002789956,-0.0004902351534475959
494758,0.04,0.04,0.04,-0.52,-0.53,-0.64,208.43,Lift,2509.0,0.0,0.0,0.0,0.0014746911119968113,0.001478676763650857,0.0014109206855320844,-0.0005819051414906256
497267,0.05,0.05,0.05,-0.79,-0.85,-0.84,206.89,Lift,2509.0,3.985651654045437e-06,3.985651654045437e-06,3.985651654045437e-06,-0.0001076125946592268,-0.00012754085292945394,-7.971303308090871e-05,-0.0006137903547230053
499775,0.04,0.04,0.04,-6.63,-6.5,-6.31,205.69,Lift,2508.0,-3.987240829346093e-06,-3.987240829346093e-06,-3.987240829346093e-06,-0.002328548644338118,-0.0022527910685805424,-0.0021810207336523126,-0.00047846889952152656
502284,0.02,0.02,0.02,-2.22,-2.38,-2.42,204.87,Lift,2509.0,-7.971303308090873e-06,-7.971303308090873e-06,-7.971303308090873e-06,0.0017576723794340376,0.0016420884814667199,0.0015504184934236746,-0.0003268234356317231
504793,0.03,0.03,0.03,0.11,0.1,0.02,204.31,Lift,2509.0,3.985651654045436e-06,3.985651654045436e-06,3.985651654045436e-06,0.0009286568353925867,0.0009884416102032682,0.0009724990035870865,-0.00022319649262654535
507302,0.02,0.02,0.02,0.28,0.23,0.15,203.97,Lift,2509.0,-3.985651654045436e-06,-3.985651654045436e-06,-3.985651654045436e-06,6.775607811877243e-05,5.1813471502590674e-05,5.1813471502590674e-05,-0.0001355121562375462
509811,0.06,0.06,0.06,-2.59,-2.56,-2.65,203.68,Lift,2509.0,1.5942606616181743e-05,1.5942606616181743e-05,1.5942606616181743e-05,-0.0011438820247110402,-0.0011119968114786769,-0.0011159824631327222,-0.00011558389796731449
512320,0.05,0.04,0.04,-0.26,-0.52,-0.71,203.45,Lift,2509.0,-3.985651654045435e-06,-7.971303308090871e-06,-7.971303308090871e-06,0.0009286568353925867,0.000813072937425269,0.0007732164208848146,-9.166998804305229e-05
514829,0.02,0.02,0.02,-2.4,-2.37,-2.31,203.23,Lift,2509.0,-1.195695496213631e-05,-7.971303308090873e-06,-7.971303308090873e-06,-0.0008529294539657233,-0.0007373455559984058,-0.0006377042646472698,-8.768433638899914e-05
517338,0.04,0.04,0.04,-2.24,-2.3,-2.35,202.68,Lift,2509.0,7.971303308090873e-06,7.971303308090873e-06,7.971303308090873e-06,6.377042646472686e-05,2.7899561578318168e-05,-1.594260661618176e-05,-0.0002192108409724922
519847,0.06,0.06,0.06,0.18,0.21,0.27,201.98,Lift,2509.0,7.971303308090871e-06,7.971303308090871e-06,7.971303308090871e-06,0.0009645277002789958,0.0010003985651654045,0.0010442407333599044,-0.00027899561578318733
522356,0.05,0.05,0.05,-0.56,-0.56,-0.68,201.43,Lift,2509.0,-3.985651654045435e-06,-3.985651654045435e-06,-3.985651654045435e-06,-0.0002949382223993623,-0.0003068951773614986,-0.0003786369071343165,-0.0002192108409724922
524865,0.04,0.04,0.04,-2.27,-2.26,-2.22,201.02,Lift,2509.0,-3.985651654045437e-06,-3.985651654045437e-06,-3.985651654045437e-06,-0.0006815464328417696,-0.0006775607811877241,-0.0006137903547229972,-0.00016341171781586154
527374,0.02,0.02,0.02,2.42,2.37,2.37,200.81,Lift,2509.0,-7.971303308090873e-06,-7.971303308090873e-06,-7.971303308090873e-06,0.0018692706257473096,0.001845356715823037,0.0018294141092068553,-8.369868473495733e-05
529883,0.04,0.03,0.03,-1.34,-1.37,-1.54,200.63,Lift,2509.0,7.971303308090873e-06,3.985651654045436e-06,3.985651654045436e-06,-0.001498605021921084,-0.0014906337186129932,-0.0015583897967317657,-7.174172977282057e-05
532392,0.03,0.04,0.03,-4.29,-4.34,-4.47,200.36,Lift,2509.0,-3.985651654045437e-06,3.985651654045437e-06,0.0,-0.0011757672379434038,-0.0011837385412514945,-0.0011677959346353128,-0.00010761259465921953
534901,0.0,0.0,0.0,-0.48,-0.37,-0.27,200.23,Lift,2509.0,-1.1956954962136309e-05,-1.5942606616181746e-05,-1.1956954962136309e-05,0.0015185332801913112,0.0015823037066560381,0.001673973694699083,-5.181347150260019e-05
537410,0.05,0.05,0.05,2.63,2.56,2.44,200.21,Lift,2509.0,1.9928258270227182e-05,1.9928258270227182e-05,1.9928258270227182e-05,0.0012395376644081307,0.0011677959346353128,0.0010801115982463133,-7.971303308083622e-06
539919,0.01,0.01,0.02,3.03,3.21,3.31,200.37,Lift,2509.0,-1.5942606616181746e-05,-1.5942606616181746e-05,-1.195695496213631e-05,0.00015942606616181743,0.00025906735751295336,0.000346751693901953,6.377042646472563e-05
542428,0.04,0.04,0.04,0.93,0.98,0.94,201.05,Lift,2509.0,1.1956954962136309e-05,1.1956954962136309e-05,7.971303308090873e-06,-0.0008369868473495415,-0.0008888003188521323,-0.0009445994420087685,0.0002710243124750924
544937,0.05,0.05,0.05,-1.71,-1.72,-1.69,202.05,Lift,2509.0,3.985651654045437e-06,3.985651654045437e-06,3.985651654045437e-06,-0.0010522120366679953,-0.001076125946592268,-0.0010482263850139497,0.00039856516540454366
547446,0.02,0.02,0.02,-1.79,-1.74,-1.76,203.3,Lift,2509.0,-1.195695496213631e-05,-1.195695496213631e-05,-1.195695496213631e-05,-3.188521323236352e-05,-7.97130330809088e-06,-2.789956157831808e-05,0.0004982064567556796
549815,-0.03,-0.03,-0.03,29.89,29.6,29.26,213.14,Lift,2369.0,-2.1105951878429718e-05,-2.1105951878429718e-05,-2.1105951878429718e-05,0.01337273111017307,0.013229210637399747,0.013094132545377798,0.004153651329674958
549955,0.05,0.05,0.05,1.21,1.21,1.21,204.72,Lift,140.0,0.0005714285714285715,0.0005714285714285715,0.0005714285714285715,-0.20485714285714285,-0.2027857142857143,-0.20035714285714287,-0.060142857142857054
552464,0.08,0.08,0.07,-1.74,-1.72,-1.7,206.23,Lift,2509.0,1.1956954962136309e-05,1.1956954962136309e-05,7.971303308090875e-06,-0.0011757672379434038,-0.0011677959346353128,-0.0011598246313272221,0.0006018333997608573
554973,0.14,0.14,0.14,-0.2,-0.44,-0.57,207.89,Lift,2509.0,2.3913909924272624e-05,2.3913909924272624e-05,2.7899561578318056e-05,0.0006137903547229972,0.0005101634117178159,0.00045037863690713427,0.0006616181745715411
557482,0.07,0.07,0.07,-1.15,-1.25,-1.23,209.64,Lift,2509.0,-2.7899561578318056e-05,-2.7899561578318056e-05,-2.7899561578318056e-05,-0.00037863690713431646,-0.0003228377839776804,-0.00026305300916699883,0.0006974890394579514
559991,0.05,0.05,0.06,-3.09,-3.13,-3.11,211.48,Lift,2509.0,-7.971303308090875e-06,-7.971303308090875e-06,-3.98565165404544e-06,-0.0007732164208848146,-0.000749302510960542,-0.000749302510960542,0.0007333599043443617
562500,0.08,0.08,0.08,-1.41,-1.47,-1.55,212.94,Lift,2509.0,1.1956954962136309e-05,1.1956954962136309e-05,7.971303308090875e-06,0.0006695894778796333,0.0006616181745715424,0.000621761658031088,0.0005819051414906369
564869,-0.04,-0.04,-0.04,-84.72,-84.91,-85.06,215.45,Lift,2369.0,-5.065428450823132e-05,-5.065428450823132e-05,-5.065428450823132e-05,-0.0351667370198396,-0.03522161249472351,-0.035251160827353314,0.001059518784297168
567518,0.08,0.08,0.09,0.0,0.11,0.21,215.83,Lift,2509.0,3.985651654045435e-06,3.985651654045435e-06,1.1956954962136309e-05,0.0011080111598246313,0.0011438820247110402,0.0011199681147867676,0.000482263850139501
570027,-0.01,-0.01,-0.01,-1.63,-1.68,-1.79,216.72,Lift,2509.0,-3.5870864886408924e-05,-3.5870864886408924e-05,-3.9856516540454363e-05,-0.0006496612196094061,-0.0007134316460741332,-0.0007971303308090873,0.0003547229972100384
572536,0.06,0.07,0.07,-0.13,-0.05,0.05,217.38,Lift,2509.0,2.7899561578318053e-05,3.188521323236349e-05,3.188521323236349e-05,0.0005978477481068154,0.0006496612196094061,0.0007333599043443603,0.0002630530091669974
575045,0.03,0.03,0.03,0.52,0.5,0.53,217.86,Lift,2509.0,-1.1956954962136309e-05,-1.594260661618175e-05,-1.594260661618175e-05,0.00025906735751295336,0.00021921084097249903,0.00019131127939418097,0.0001913112793941882
577554,0.02,0.02,0.01,-18.47,-18.5,-18.6,218.2,Lift,2509.0,-3.985651654045436e-06,-3.985651654045436e-06,-7.971303308090871e-06,-0.007568752491032283,-0.00757273814268633,-0.007624551614188921,0.00013551215623753486
579923,-0.2,-0.2,-0.2,89.85,89.9,89.87,213.27,Lift,2369.0,-9.286618826509076e-05,-9.286618826509076e-05,-8.864499788940482e-05,0.045723934149430136,0.04575770367243563,0.04578725200506543,-0.002081046855213161
582572,-0.02,-0.02,-0.02,4.28,4.31,4.37,218.53,Lift,2509.0,-1.5942606616181746e-05,-1.5942606616181746e-05,-1.5942606616181746e-05,0.0011598246313272221,0.001151853328019131,0.0011677959346353128,3.5870864886410286e-05
585081,0.02,0.02,0.02,-1.54,-1.52,-1.58,218.17,Lift,2509.0,1.5942606616181746e-05,1.5942606616181746e-05,1.5942606616181746e-05,-0.0023196492626544442,-0.0023236349143084894,-0.0023714627341570346,-0.00014348345954564115
587590,0.05,0.05,0.05,-4.21,-4.27,-4.26,217.37,Lift,2509.0,1.195695496213631e-05,1.195695496213631e-05,1.195695496213631e-05,-0.0010641689916301314,-0.0010960542048624948,-0.0010681546432841768,-0.00031885213232362813
590099,0.03,0.03,0.03,-6.19,-6.37,-6.52,216.31,Lift,2509.0,-7.971303308090875e-06,-7.971303308090875e-06,-7.971303308090875e-06,-0.0007891590275009966,-0.0008369868473495418,-0.0009007572738142685,-0.00042247907532881715
592608,0.03,0.03,0.03,-5.55,-5.6,-5.68,215.06,Lift,2509.0,0.0,0.0,0.0,0.00025508170585890815,0.0003068951773614988,0.0003347947389398166,-0.0004982064567556796
594976,-0.14,-0.14,-0.14,12.45,12.03,11.6,212.98,Lift,2368.0,-7.179054054054054e-05,-7.179054054054054e-05,-7.179054054054054e-05,0.007601351351351352,0.007445101351351351,0.007297297297297297,-0.0008783783783783836
597626,0.09,0.08,0.09,1.96,2.07,2.08,213.28,Lift,2509.0,2.7899561578318053e-05,2.3913909924272617e-05,2.7899561578318053e-05,0.000840972499003587,0.0008330011956954961,0.0008449581506576326,-0.00028696691909127096
600135,0.09,0.09,0.09,5.27,5.2,5.21,212.72,Lift,2509.0,0.0,3.985651654045435e-06,0.0,0.0013192506974890393,0.0012475089677162216,0.0012475089677162216,-0.00022319649262654535
602644,0.03,0.03,0.03,-6.12,-6.21,-6.33,212.3,Lift,2509.0,-2.3913909924272617e-05,-2.3913909924272617e-05,-2.3913909924272617e-05,-0.004539657233957752,-0.004547628537265843,-0.0045994420087684335,-0.00016739736946990336
605153,0.01,0.01,0.0,0.05,-0.07,-0.08,212.01,Lift,2509.0,-7.971303308090871e-06,-7.971303308090871e-06,-1.1956954962136309e-05,0.0024591470705460344,0.002447190115583898,0.0024910322837783977,-0.00011558389796732582
607662,0.04,0.04,0.04,-2.49,-2.46,-2.44,211.74,Lift,2509.0,1.1956954962136309e-05,1.1956954962136309e-05,1.5942606616181746e-05,-0.0010123555201275408,-0.0009525707453168594,-0.0009406137903547229,-0.00010761259465921953
610030,0.05,0.05,0.05,-68.19,-68.05,-67.79,215.06,Lift,2368.0,4.222972972972974e-06,4.222972972972974e-06,4.222972972972974e-06,-0.027744932432432434,-0.02769847972972973,-0.027597128378378383,0.0014020270270270242
612680,0.04,0.04,0.04,-1.78,-1.95,-2.0,210.79,Lift,2509.0,1.5942606616181746e-05,1.5942606616181746e-05,1.5942606616181746e-05,-0.0015663611000398564,-0.0016899163013152651,-0.0017935432443204463,-0.0002670386608210506
615189,0.04,0.04,0.04,0.09,0.17,0.28,209.82,Lift,2509.0,0.0,0.0,0.0,0.0007453168593064966,0.0008449581506576326,0.0009087285771223596,-0.00038660821044240686
617698,0.05,0.05,0.05,-2.54,-2.47,-2.4,208.91,Lift,2509.0,3.985651654045437e-06,3.985651654045437e-06,3.985651654045437e-06,-0.0010482263850139497,-0.0010522120366679953,-0.0010681546432841768,-0.0003626943005181334
620207,0.05,0.06,0.05,-2.11,-2.11,-2.2,207.62,Lift,2509.0,0.0,3.985651654045435e-06,0.0,0.00017138302112395382,0.00014348345954563583,7.971303308090862e-05,-0.0005141490633718581
622716,0.05,0.05,0.05,3.18,3.15,3.2,206.39,Lift,2509.0,0.0,-3.985651654045435e-06,0.0,0.0021084097249900358,0.0020964527700278995,0.002152251893184536,-0.0004902351534475959
625084,0.03,0.02,0.02,21.14,20.66,20.3,213.24,Lift,2368.0,-8.445945945945948e-06,-1.266891891891892e-05,-1.266891891891892e-05,0.00758445945945946,0.0073944256756756765,0.007221283783783785,0.002892736486486496
625225,0.03,0.03,0.03,0.11,0.23,0.3,205.47,Lift,141.0,0.0,7.092198581560282e-05,7.092198581560282e-05,-0.14914893617021277,-0.1448936170212766,-0.14184397163120568,-0.05510638297872348
627734,0.05,0.05,0.05,-1.96,-2.01,-2.05,204.82,Lift,2509.0,7.971303308090875e-06,7.971303308090875e-06,7.971303308090875e-06,-0.0008250298923874053,-0.0008927859705061777,-0.0009366281387006775,-0.00025906735751295563
630243,0.04,0.05,0.05,-0.02,-0.13,-0.24,204.36,Lift,2509.0,-3.985651654045437e-06,0.0,0.0,0.0007732164208848146,0.000749302510960542,0.0007214029493822239,-0.00018333997608608192
632751,0.06,0.06,0.07,-1.18,-1.24,-1.34,204.01,Lift,2508.0,7.974481658692184e-06,3.98724082934609e-06,7.974481658692186e-06,-0.0004625199362041467,-0.00044258373205741623,-0.00043859649122807024,-0.0001395534290271223
635260,0.07,0.07,0.07,-1.63,-1.5,-1.27,203.76,Lift,2509.0,3.98565165404544e-06,3.98565165404544e-06,0.0,-0.00017935432443204463,-0.00010362694300518135,2.789956157831808e-05,-9.964129135113592e-05
637769,0.02,0.02,0.02,-6.0,-6.13,-6.21,203.56,Lift,2509.0,-1.9928258270227182e-05,-1.9928258270227182e-05,-1.9928258270227182e-05,-0.0017417297728178557,-0.001845356715823037,-0.001968911917098445,-7.97130330809042e-05
640278,-0.08,-0.08,-0.08,5.42,5.41,5.4,203.16,Lift,2509.0,-3.9856516540454363e-05,-3.9856516540454363e-05,-3.9856516540454363e-05,0.004551614188919888,0.0045994420087684335,0.004627341570346752,-0.00015942606616181973
642787,0.03,0.03,0.03,-2.99,-2.91,-2.79,202.56,Lift,2509.0,4.38421681944998e-05,4.38421681944998e-05,4.38421681944998e-05,-0.003351933041052212,-0.003316062176165803,-0.0032642487046632127,-0.00023913909924272393
645296,0.03,0.03,0.03,-0.6,-0.54,-0.47,202.0,Lift,2509.0,0.0,0.0,0.0,0.0009525707453168594,0.0009445994420087685,0.0009246711837385414,-0.00022319649262654535
647805,0.02,0.02,0.03,-1.05,-1.01,-1.03,201.6,Lift,2509.0,-3.985651654045436e-06,-3.985651654045436e-06,0.0,-0.00017935432443204466,-0.0001873256277401355,-0.00022319649262654445,-0.00015942606616181973
650314,-0.03,-0.03,-0.03,-4.53,-4.72,-4.98,201.31,Lift,2509.0,-1.9928258270227182e-05,-1.9928258270227182e-05,-2.3913909924272617e-05,-0.001387006775607812,-0.001478676763650857,-0.0015743324033479474,-0.00011558389796731449
652823,0.04,0.04,0.04,21.85,21.6,21.31,200.9,Lift,2509.0,2.7899561578318056e-05,2.7899561578318056e-05,2.7899561578318056e-05,0.010514149063371862,0.010490235153447589,0.010478278198485453,-0.00016341171781586154
655332,-0.01,-0.01,-0.01,-2.52,-2.52,-2.43,200.6,Lift,2509.0,-1.9928258270227182e-05,-1.9928258270227182e-05,-1.9928258270227182e-05,-0.009713033080908729,-0.009613391789557594,-0.009461937026703865,-0.00011956954962136763
657841,0.05,0.05,0.05,-8.6,-8.69,-8.83,200.51,Lift,2509.0,2.391390992427262e-05,2.391390992427262e-05,2.391390992427262e-05,-0.0024232762056596254,-0.0024591470705460344,-0.0025508170585890793,-3.5870864886410286e-05
660350,-0.07,-0.07,-0.08,14.92,15.08,15.18,200.52,Lift,2509.0,-4.782781984854524e-05,-4.782781984854524e-05,-5.1813471502590674e-05,0.009374252690314866,0.009473893981666003,0.009569549621363091,3.9856516540531394e-06
662859,-0.03,-0.02,-0.03,-16.76,-16.58,-16.49,200.56,Lift,2509.0,1.594260661618175e-05,1.9928258270227182e-05,1.9928258270227182e-05,-0.012626544440015942,-0.012618573136707851,-0.012622558788361896,1.5942606616178575e-05
665368,-0.0,-0.01,-0.0,-9.69,-9.6,-9.5,200.6,Lift,2509.0,1.1956954962136309e-05,3.9856516540454365e-06,1.1956954962136309e-05,0.0028178557194101245,0.002781984854523714,0.0027859705061777595,1.5942606616178575e-05
667877,0.04,0.04,0.04,-1.86,-1.85,-1.81,200.66,Lift,2509.0,1.5942606616181746e-05,1.9928258270227182e-05,1.5942606616181746e-05,0.0031207652451175766,0.0030888800318852132,0.0030649661219609406,2.3913909924273525e-05
670386,0.04,0.04,0.04,-2.07,-2.08,-2.03,200.74,Lift,2509.0,0.0,0.0,0.0,-8.369868473495406e-05,-9.166998804304504e-05,-8.76843363889995e-05,3.188521323236847e-05
672895,0.02,0.02,0.02,-1.66,-1.6,-1.63,200.71,Lift,2509.0,-7.971303308090873e-06,-7.971303308090873e-06,-7.971303308090873e-06,0.00016341171781586287,0.00019131127939418094,0.00015942606616181743,-1.1956954962136763e-05
675403,0.04,0.04,0.04,-2.95,-3.2,-3.4,200.7,Lift,2508.0,7.974481658692186e-06,7.974481658692186e-06,7.974481658692186e-06,-0.000514354066985646,-0.0006379585326953748,-0.0007057416267942584,-3.987240829353798e-06
677912,0.07,0.07,0.07,-3.93,-4.04,-4.16,200.69,Lift,2509.0,1.1956954962136312e-05,1.1956954962136312e-05,1.1956954962136312e-05,-0.00039059386209645277,-0.0003347947389398166,-0.0003029095257074533,-3.985651654041811e-06
680421,0.02,0.03,0.02,-1.23,-1.22,-1.06,200.68,Lift,2509.0,-1.9928258270227182e-05,-1.594260661618175e-05,-1.9928258270227182e-05,0.001076125946592268,0.0011239537664408132,0.0012355520127540853,-3.985651654041811e-06
682930,0.02,0.02,0.02,-1.83,-1.86,-1.71,200.59,Lift,2509.0,0.0,-3.985651654045436e-06,0.0,-0.0002391390992427262,-0.000255081705858908,-0.00025906735751295336,-3.5870864886410286e-05
685439,0.02,0.02,0.02,-3.08,-3.08,-3.15,200.5,Lift,2509.0,0.0,0.0,0.0,-0.0004982064567556796,-0.00048624950179354325,-0.0005739338381825428,-3.5870864886410286e-05
687948,0.05,0.05,0.05,-2.07,-2.05,-2.01,200.51,Lift,2509.0,1.195695496213631e-05,1.195695496213631e-05,1.195695496213631e-05,0.0004025508170585892,0.00041052212036668,0.0004543642885611798,3.985651654041811e-06
690456,0.05,0.05,0.05,-1.24,-1.24,-1.12,200.86,Lift,2508.0,0.0,0.0,0.0,0.0003309409888357256,0.00032296650717703344,0.0003548644338118021,0.0001395534290271223
692965,0.05,0.05,0.05,-2.5,-2.52,-2.63,201.65,Lift,2509.0,0.0,0.0,0.0,-0.000502192108409725,-0.0005101634117178159,-0.0006018333997608608,0.0003148664806695863
695474,0.06,0.06,0.06,-0.11,-0.09,-0.13,202.84,Lift,2509.0,3.985651654045435e-06,3.985651654045435e-06,3.985651654045435e-06,0.0009525707453168594,0.0009685133519330411,0.0009964129135113591,0.000474292546831406
697983,0.06,0.05,0.05,-2.4,-2.3,-2.18,204.16,Lift,2509.0,0.0,-3.985651654045435e-06,-3.985651654045435e-06,-0.000912714228776405,-0.0008808290155440414,-0.0008170585890793146,0.0005261060183339948
700492,0.09,0.09,0.09,-1.56,-1.56,-1.49,205.65,Lift,2509.0,1.1956954962136309e-05,1.5942606616181743e-05,1.5942606616181743e-05,0.0003347947389398166,0.0002949382223993622,0.0002750099641291352,0.0005938620964527736
703001,0.08,0.08,0.08,-1.73,-1.66,-1.69,207.23,Lift,2509.0,-3.985651654045435e-06,-3.985651654045435e-06,-3.985651654045435e-06,-6.775607811877239e-05,-3.985651654045431e-05,-7.971303308090871e-05,0.0006297329613391726
705509,0.08,0.08,0.08,0.46,0.6,0.59,208.95,Lift,2508.0,0.0,0.0,0.0,0.0008732057416267942,0.0009011164274322168,0.000909090909090909,0.0006858054226475275
708018,0.05,0.04,0.05,-1.82,-1.76,-1.63,210.82,Lift,2509.0,-1.1956954962136309e-05,-1.5942606616181746e-05,-1.1956954962136309e-05,-0.0009087285771223596,-0.0009406137903547229,-0.0008848146671980868,0.0007453168593064985
710527,0.06,0.06,0.06,-0.66,-0.56,-0.59,212.65,Lift,2509.0,3.985651654045435e-06,7.971303308090871e-06,3.985651654045435e-06,0.0004623355918692707,0.00047827819848545236,0.0004145077720207254,0.0007293742526903198
713036,0.06,0.06,0.07,-1.52,-1.47,-1.5,214.47,Lift,2509.0,0.0,0.0,3.98565165404544e-06,-0.00034276604224790753,-0.0003626943005181347,-0.00036269430051813473,0.0007253886010362668
715545,0.08,0.08,0.08,-0.97,-0.95,-1.02,215.85,Lift,2509.0,7.971303308090875e-06,7.971303308090875e-06,3.985651654045435e-06,0.00021921084097249903,0.0002072538860103627,0.00019131127939418094,0.0005500199282582684
718054,0.07,0.07,0.07,-1.46,-1.5,-1.5,216.86,Lift,2509.0,-3.985651654045435e-06,-3.985651654045435e-06,-3.985651654045435e-06,-0.00019529693104822639,-0.00021921084097249903,-0.00019131127939418094,0.0004025508170585968
720562,0.06,0.06,0.07,-0.76,-0.68,-0.57,217.56,Lift,2508.0,-3.987240829346096e-06,-3.987240829346096e-06,0.0,0.00027910685805422646,0.00032695374800637955,0.00037081339712918663,0.00027910685805422196
723071,0.09,0.09,0.09,-1.47,-1.56,-1.55,218.06,Lift,2509.0,1.1956954962136309e-05,1.1956954962136309e-05,7.97130330809087e-06,-0.000282981267437226,-0.0003507373455559984,-0.0003905938620964528,0.00019928258270227183
725580,0.05,0.05,0.05,-9.58,-9.63,-9.74,218.43,Lift,2509.0,-1.5942606616181743e-05,-1.5942606616181743e-05,-1.5942606616181743e-05,-0.0032323634914308485,-0.0032164208848146675,-0.0032642487046632123,0.00014746911119968296
728089,0.05,0.05,0.05,-1.55,-1.51,-1.4,218.71,Lift,2509.0,0.0,0.0,0.0,0.003200478278198485,0.003236349143084895,0.003324033479473894,0.00011159824631327267
730598,0.03,0.03,0.03,0.21,0.16,0.18,218.99,Lift,2509.0,-7.971303308090875e-06,-7.971303308090875e-06,-7.971303308090875e-06,0.0007014746911119968,0.0006656038262255879,0.0006297329613391789,0.00011159824631327267
733107,0.08,0.08,0.08,4.76,4.73,4.62,219.14,Lift,2509.0,1.9928258270227182e-05,1.9928258270227182e-05,1.9928258270227182e-05,0.0018134715025906736,0.0018214428058987645,0.001769629334396174,5.9784774810672485e-05
735615,-0.07,-0.07,-0.07,-5.24,-5.27,-5.16,219.18,Lift,2508.0,-5.9808612440191396e-05,-5.9808612440191396e-05,-5.9808612440191396e-05,-0.003987240829346092,-0.003987240829346092,-0.003899521531100479,1.594896331739253e-05
738124,-0.05,-0.05,-0.05,4.63,4.79,4.85,218.91,Lift,2509.0,7.971303308090875e-06,7.971303308090875e-06,7.971303308090875e-06,0.0039338381825428466,0.004009565563969708,0.003989637305699482,-0.00010761259465923086
740633,-0.05,-0.05,-0.05,-1.34,-1.04,-0.8,218.22,Lift,2509.0,0.0,0.0,0.0,-0.0023794340374651253,-0.0023236349143084894,-0.0022518931845356715,-0.0002750099641291342
743141,0.01,0.01,0.01,6.02,6.17,6.27,217.13,Lift,2508.0,2.3923444976076556e-05,2.3923444976076556e-05,2.3923444976076556e-05,0.002934609250398724,0.0028748006379585326,0.002818979266347687,-0.00043460925039872543
745650,-0.07,-0.07,-0.07,0.38,0.44,0.46,215.8,Lift,2509.0,-3.188521323236349e-05,-3.188521323236349e-05,-3.188521323236349e-05,-0.002247907532881626,-0.002283778397768035,-0.002315663611000398,-0.0005300916699880367
748159,-0.05,-0.05,-0.05,0.25,0.16,0.1,214.6,Lift,2509.0,7.971303308090875e-06,7.971303308090875e-06,7.971303308090875e-06,-5.1813471502590674e-05,-0.00011159824631327223,-0.0001434834595456357,-0.0004782781984854592
750667,-0.0,0.0,-0.0,-1.7,-1.79,-1.81,213.74,Lift,2508.0,1.9936204146730462e-05,1.9936204146730462e-05,1.9936204146730462e-05,-0.000777511961722488,-0.000777511961722488,-0.0007615629984051037,-0.00034290271132375805
753176,-0.04,-0.05,-0.05,2.54,2.51,2.62,213.08,Lift,2509.0,-1.5942606616181746e-05,-1.9928258270227182e-05,-1.9928258270227182e-05,0.0016899163013152651,0.0017138302112395375,0.0017656436827421281,-0.0002630530091669974
755685,0.03,0.03,0.03,1.8,1.96,2.08,212.63,Lift,2509.0,2.7899561578318056e-05,3.188521323236349e-05,3.188521323236349e-05,-0.0002949382223993623,-0.00021921084097249892,-0.0002152251893184536,-0.00017935432443205143
758194,0.06,0.06,0.06,-0.79,-0.83,-0.84,212.27,Lift,2509.0,1.1956954962136309e-05,1.1956954962136309e-05,1.1956954962136309e-05,-0.001032283778397768,-0.0011119968114786769,-0.0011638102829812675,-0.00014348345954562982
760703,0.01,0.01,0.01,0.2,0.23,0.24,212.0,Lift,2509.0,-1.9928258270227182e-05,-1.9928258270227182e-05,-1.9928258270227182e-05,0.0003945795137504982,0.0004224790753288163,0.0004304503786369072,-0.00010761259465923086
763212,0.05,0.05,0.05,-1.12,-1.15,-1.11,211.85,Lift,2509.0,1.5942606616181746e-05,1.5942606616181746e-05,1.5942606616181746e-05,-0.0005261060183339977,-0.0005500199282582702,-0.000538062973296134,-5.9784774810683815e-05
765720,0.05,0.05,0.05,-0.9,-0.93,-0.86,211.71,Lift,2508.0,0.0,0.0,0.0,8.771929824561407e-05,8.771929824561397e-05,9.968102073365235e-05,-5.582137161083986e-05
768229,0.02,0.02,0.02,-0.44,-0.5,-0.53,211.45,Lift,2509.0,-1.195695496213631e-05,-1.195695496213631e-05,-1.195695496213631e-05,0.00018333997608609007,0.0001713830211239538,0.0001315265045834994,-0.00010362694300518905
770738,0.02,0.02,0.02,-5.31,-5.37,-5.33,210.76,Lift,2509.0,0.0,0.0,0.0,-0.0019410123555201272,-0.0019410123555201276,-0.0019131127939418094,-0.0002750099641291342
773247,0.02,0.02,0.02,-0.71,-0.66,-0.64,209.82,Lift,2509.0,0.0,0.0,0.0,0.0018333997608609006,0.0018772419290554005,0.0018692706257473098,-0.0003746512554802701
775756,0.05,0.05,0.05,-2.6,-2.54,-2.55,208.86,Lift,2509.0,1.195695496213631e-05,1.195695496213631e-05,1.195695496213631e-05,-0.0007532881626145876,-0.000749302510960542,-0.0007612594659226783,-0.00038262255878835375
778265,0.04,0.04,0.04,-1.26,-1.23,-1.29,207.52,Lift,2509.0,-3.985651654045437e-06,-3.985651654045437e-06,-3.985651654045437e-06,0.0005340773216420885,0.0005221203666799522,0.0005021921084097249,-0.0005340773216420898
780773,0.0,0.0,0.0,-0.01,0.08,0.11,206.03,Lift,2508.0,-1.594896331738437e-05,-1.594896331738437e-05,-1.594896331738437e-05,0.0004984051036682615,0.0005223285486443381,0.000558213716108453,-0.0005940988835725714
783282,0.07,0.07,0.07,0.09,0.03,0.02,204.6,Lift,2509.0,2.7899561578318056e-05,2.7899561578318056e-05,2.7899561578318056e-05,3.9856516540454363e-05,-1.9928258270227182e-05,-3.5870864886408924e-05,-0.0005699481865285001
785790,-0.06,-0.06,-0.07,-18.55,-18.89,-19.24,203.52,Lift,2508.0,-5.18341307814992e-05,-5.18341307814992e-05,-5.58213716108453e-05,-0.0074322169059011164,-0.007543859649122808,-0.007679425837320573,-0.00043062200956937163
788299,-0.05,-0.05,-0.05,0.21,0.29,0.29,202.8,Lift,2509.0,3.985651654045435e-06,3.985651654045435e-06,7.971303308090875e-06,0.007477082502989239,0.007644479872459147,0.007783977680350737,-0.00028696691909127096
790808,-0.08,-0.08,-0.08,4.66,4.67,4.72,202.24,Lift,2509.0,-1.1956954962136309e-05,-1.1956954962136309e-05,-1.1956954962136309e-05,0.0017736149860502193,0.001745715424471901,0.0017656436827421281,-0.00022319649262654535
793317,0.02,0.02,0.02,-7.56,-7.8,-7.9,201.86,Lift,2509.0,3.9856516540454363e-05,3.9856516540454363e-05,3.9856516540454363e-05,-0.004870466321243523,-0.004970107612594659,-0.0050298923874053415,-0.00015145476285372477
795825,-0.03,-0.03,-0.03,-1.33,-1.48,-1.55,201.57,Lift,2508.0,-1.9936204146730462e-05,-1.9936204146730462e-05,-1.9936204146730462e-05,0.0024840510366826154,0.0025199362041467307,0.002531897926634769,-0.00011562998405104485
798333,-0.0,-0.0,-0.0,-1.72,-1.63,-1.56,201.44,Lift,2508.0,1.1961722488038278e-05,1.1961722488038278e-05,1.1961722488038278e-05,-0.00015550239234449756,-5.9808612440191355e-05,-3.987240829346096e-06,-5.183413078149739e-05
800842,0.01,0.01,0.01,2.44,2.42,2.42,201.27,Lift,2509.0,3.9856516540454365e-06,3.9856516540454365e-06,3.9856516540454365e-06,0.0016580310880829016,0.0016141889198884017,0.0015862893583100837,-6.775607811876743e-05
803351,0.0,0.0,0.0,-0.76,-0.67,-0.62,201.15,Lift,2509.0,-3.9856516540454365e-06,-3.9856516540454365e-06,-3.9856516540454365e-06,-0.0012754085292945396,-0.0012315663611000398,-0.0012116381028298127,-4.782781984854705e-05
848824,-0.09,-0.09,-0.09,0.17,0.12,-0.01,219.1,Lift,45473.0,-1.9791964462428254e-06,-1.9791964462428254e-06,-1.9791964462428254e-06,2.0451696611175863e-05,1.7372946583687023e-05,1.3414553691201372e-05,0.0003947397356673188
851334,-0.05,-0.05,-0.05,-12.85,-12.87,-12.96,219.31,Lift,2510.0,1.5936254980079678e-05,1.5936254980079678e-05,1.5936254980079678e-05,-0.005187250996015936,-0.005175298804780876,-0.005159362549800798,8.36653386454215e-05
856352,-0.05,-0.05,-0.05,1.41,1.45,1.47,218.96,Lift,5018.0,0.0,0.0,0.0,0.0028417696293343963,0.002853726584296532,0.002875647668393783,-6.9748903945794e-05
868448,-0.25,-0.25,-0.25,3.06,2.21,1.26,213.05,Lift,12096.0,-1.6534391534391536e-05,-1.6534391534391536e-05,-1.6534391534391536e-05,0.00013640873015873016,6.283068783068783e-05,-1.7361111111111108e-05,-0.0004885912698412696
920158,0.03,0.03,0.03,-2.69,-2.63,-2.56,206.0,Lift,51710.0,5.414813382324502e-06,5.414813382324502e-06,5.414813382324502e-06,-0.00011119706052987816,-9.359891703732353e-05,-7.387352543028429e-05,-0.00013633726551924214
922667,0.04,0.04,0.04,1.07,1.09,1.11,204.7,Lift,2509.0,3.985651654045437e-06,3.985651654045437e-06,3.985651654045437e-06,0.001498605021921084,0.0014826624153049023,0.0014627341570346752,-0.0005181347150259113
925176,0.12,0.12,0.12,4.4,4.42,4.51,203.76,Lift,2509.0,3.1885213232363485e-05,3.1885213232363485e-05,3.1885213232363485e-05,0.0013272220007971305,0.0013272220007971305,0.0013551215623754482,-0.0003746512554802701
927685,0.04,0.04,0.04,-0.84,-0.81,-0.92,203.05,Lift,2509.0,-3.1885213232363485e-05,-3.1885213232363485e-05,-3.1885213232363485e-05,-0.0020884814667198087,-0.0020844958150657636,-0.0021642088481466717,-0.00028298126743721785
930194,0.07,0.07,0.07,4.18,4.13,4.14,202.55,Lift,2509.0,1.1956954962136312e-05,1.1956954962136312e-05,1.1956954962136312e-05,0.002000797130330809,0.001968911917098445,0.002016739736946991,-0.00019928258270227183
932703,0.06,0.06,0.06,-3.59,-3.6,-3.64,202.18,Lift,2509.0,-3.98565165404544e-06,-3.98565165404544e-06,-3.98565165404544e-06,-0.003096851335193304,-0.0030809087285771225,-0.003100836986847349,-0.00014746911119968296
935212,0.08,0.08,0.08,-3.69,-3.77,-3.82,201.91,Lift,2509.0,7.971303308090875e-06,7.971303308090875e-06,7.971303308090875e-06,-3.98565165404544e-05,-6.775607811877239e-05,-7.174172977281774e-05,-0.00010761259465923086
937721,0.06,0.06,0.06,-0.08,-0.11,-0.16,201.8,Lift,2509.0,-7.971303308090875e-06,-7.971303308090875e-06,-7.971303308090875e-06,0.0014388202471104024,0.0014587485053806299,0.0014587485053806297,-4.384216819449391e-05
940230,0.06,0.06,0.06,-2.5,-2.83,-3.13,202.1,Lift,2509.0,0.0,0.0,0.0,-0.0009645277002789956,-0.0010840972499003589,-0.0011837385412514945,0.0001195695496213563
942739,0.02,0.02,0.02,3.92,4.02,4.08,202.79,Lift,2509.0,-1.5942606616181743e-05,-1.5942606616181743e-05,-1.5942606616181743e-05,0.00255878836189717,0.002730171383021124,0.0028736548425667596,0.0002750099641291342
945248,0.02,0.02,0.02,-1.11,-1.1,-1.04,203.81,Lift,2509.0,0.0,0.0,0.0,-0.0020047827819848546,-0.002040653646871263,-0.0020406536468712635,0.0004065364687126386
947757,0.05,0.05,0.05,-10.21,-10.18,-10.14,205.04,Lift,2509.0,1.195695496213631e-05,1.195695496213631e-05,1.195695496213631e-05,-0.0036269430051813476,-0.0036189717018732565,-0.0036269430051813476,0.0004902351534475846
950266,0.05,0.05,0.05,-6.85,-6.98,-7.04,206.27,Lift,2509.0,0.0,0.0,0.0,0.0013391789557592672,0.0012754085292945394,0.0012355520127540856,0.0004902351534475959
952775,0.05,0.05,0.05,5.18,5.29,5.3,207.91,Lift,2509.0,0.0,0.0,0.0,0.00479473893981666,0.0048903945795137505,0.004918294141092069,0.0006536468712634462
955284,0.06,0.06,0.06,1.78,1.88,1.99,209.6,Lift,2509.0,3.985651654045435e-06,3.985651654045435e-06,3.985651654045435e-06,-0.0013551215623754482,-0.0013591072140294938,-0.0013192506974890393,0.0006735751295336779
957793,-0.0,-0.0,-0.0,-2.78,-2.63,-2.51,211.29,Lift,2509.0,-2.3913909924272617e-05,-2.3913909924272617e-05,-2.3913909924272617e-05,-0.001817457154244719,-0.0017975288959744917,-0.0017935432443204463,0.0006735751295336779
960302,0.04,0.04,0.04,-12.6,-12.53,-12.47,213.0,Lift,2509.0,1.5942606616181746e-05,1.5942606616181746e-05,1.5942606616181746e-05,-0.003913909924272619,-0.0039457951375049816,-0.003969709047429255,0.0006815464328417728
962811,0.03,0.03,0.03,1.17,1.11,1.11,214.68,Lift,2509.0,-3.985651654045437e-06,-3.985651654045437e-06,-3.985651654045437e-06,0.005488242327620566,0.005436428856117975,0.005412514946193703,0.0006695894778796361
965320,0.03,0.02,0.02,1.08,1.1,1.16,216.09,Lift,2509.0,0.0,-3.985651654045436e-06,-3.985651654045436e-06,-3.587086488640887e-05,-3.98565165404544e-06,1.992825827022711e-05,0.0005619768832204052
967829,0.0,0.0,0.02,-4.47,-4.64,-4.65,217.06,Lift,2509.0,-1.1956954962136309e-05,-7.971303308090873e-06,0.0,-0.002212036667995217,-0.0022877640494220804,-0.0023156636110003986,0.00038660821044240686
970338,0.02,0.02,0.02,0.73,0.82,0.87,217.79,Lift,2509.0,7.971303308090873e-06,7.971303308090873e-06,0.0,0.002072538860103627,0.0021761658031088085,0.002200079713033081,0.0002909525707453128
972847,0.01,0.01,0.01,-5.51,-5.6,-5.69,218.3,Lift,2509.0,-3.9856516540454365e-06,-3.9856516540454365e-06,-3.9856516540454365e-06,-0.0024870466321243526,-0.00255878836189717,-0.0026145874850538064,0.00020326823435632495
975356,-0.0,-0.0,-0.0,7.85,7.41,7.09,218.67,Lift,2509.0,-3.9856516540454365e-06,-3.9856516540454365e-06,-3.9856516540454365e-06,0.005324830609804703,0.005185332801913113,0.005093662813870068,0.00014746911119967163
977865,0.29,0.29,0.28,-9.62,-9.66,-9.68,218.95,Lift,2509.0,0.00011558389796731764,0.00011558389796731764,0.00011159824631327223,-0.006962933439617377,-0.00680350737345556,-0.006683937823834197,0.00011159824631327267
980374,-0.11,-0.13,-0.13,-34.24,-33.73,-33.19,219.09,Lift,2509.0,-0.00015942606616181745,-0.00016739736946990832,-0.0001634117178158629,-0.009812674372259866,-0.009593463531287365,-0.009370267038660821,5.5799123156642e-05
982883,-0.01,-0.01,-0.01,-7.94,-7.9,-7.73,218.97,Lift,2509.0,3.9856516540454363e-05,4.782781984854524e-05,4.782781984854524e-05,0.010482263850139497,0.010294938222399361,0.01014746911119968,-4.782781984854705e-05
985392,0.03,0.03,0.03,0.27,0.15,0.08,218.32,Lift,2509.0,1.5942606616181746e-05,1.5942606616181746e-05,1.5942606616181746e-05,0.0032722200079713035,0.0032084495815065768,0.003112793941809486,-0.00025906735751295563
987901,0.04,0.04,0.04,-0.02,-0.21,-0.24,217.31,Lift,2509.0,3.985651654045437e-06,3.985651654045437e-06,3.985651654045437e-06,-0.00011558389796731767,-0.0001434834595456357,-0.00012754085292945397,-0.00040255081705858545
990410,0.04,0.05,0.05,-6.69,-6.47,-6.19,216.06,Lift,2509.0,0.0,3.985651654045437e-06,3.985651654045437e-06,-0.0026584296532483065,-0.0024950179354324433,-0.0023714627341570346,-0.0004982064567556796
992919,0.04,0.05,0.04,-4.46,-4.41,-4.46,214.62,Lift,2509.0,0.0,0.0,-3.985651654045437e-06,0.0008888003188521324,0.0008210442407333597,0.0006895177361498606,-0.0005739338381825419
995428,0.11,0.11,0.11,-6.18,-6.02,-5.95,213.41,Lift,2509.0,2.7899561578318056e-05,2.3913909924272617e-05,2.7899561578318056e-05,-0.000685532084495815,-0.0006416899163013151,-0.0005938620964527702,-0.000482263850139501
997937,0.1,0.1,0.1,-2.07,-2.12,-2.15,211.67,Lift,2509.0,-3.985651654045435e-06,-3.985651654045435e-06,-3.985651654045435e-06,0.001638102829812674,0.00155440414507772,0.001514547628537266,-0.0006935033878039096
1000446,0.1,0.1,0.1,-2.58,-2.66,-2.77,209.89,Lift,2509.0,0.0,0.0,0.0,-0.00020326823435631736,-0.0002152251893184536,-0.0002471104025508171,-0.0007094459944200881
1002955,0.08,0.08,0.08,-1.31,-1.34,-1.38,208.1,Lift,2509.0,-7.971303308090875e-06,-7.971303308090875e-06,-7.971303308090875e-06,0.0005061777600637704,0.0005261060183339977,0.0005540055799123158,-0.0007134316460741299
1005464,0.08,0.08,0.08,-1.29,-1.23,-1.19,206.31,Lift,2509.0,0.0,0.0,0.0,7.97130330809088e-06,4.3842168194499836e-05,7.572738142686327e-05,-0.0007134316460741299
1007973,0.08,0.08,0.08,-1.14,-1.24,-1.31,204.86,Lift,2509.0,0.0,0.0,0.0,5.97847748106816e-05,-3.98565165404544e-06,-4.782781984854528e-05,-0.0005779194898365837
1010482,0.07,0.07,0.07,-1.61,-1.58,-1.64,203.79,Lift,2509.0,-3.985651654045435e-06,-3.985651654045435e-06,-3.985651654045435e-06,-0.0001873256277401356,-0.00013551215623754486,-0.00013152650458349933,-0.0004264647269828703
1012991,0.08,0.08,0.08,-0.91,-0.98,-0.99,202.96,Lift,2509.0,3.985651654045435e-06,3.985651654045435e-06,3.985651654045435e-06,0.00027899561578318056,0.0002391390992427262,0.00025906735751295336,-0.0003308090872857649
1015500,0.06,0.06,0.06,-0.37,-0.4,-0.31,202.41,Lift,2509.0,-7.971303308090875e-06,-7.971303308090875e-06,-7.971303308090875e-06,0.0002152251893184536,0.0002311677959346353,0.00027102431247508967,-0.00021921084097250353
1018009,0.04,0.03,0.04,-1.85,-2.02,-2.02,201.99,Lift,2509.0,-7.971303308090871e-06,-1.1956954962136309e-05,-7.971303308090871e-06,-0.0005898764447987246,-0.0006456755679553608,-0.0006815464328417696,-0.00016739736946990336
1020518,0.05,0.05,0.05,-3.7,-3.63,-3.67,201.74,Lift,2509.0,3.985651654045437e-06,7.971303308090875e-06,3.985651654045437e-06,-0.0007373455559984058,-0.0006416899163013152,-0.000657632522917497,-9.964129135113592e-05
1023027,0.05,0.05,0.05,-2.45,-2.36,-2.43,201.62,Lift,2509.0,0.0,0.0,0.0,0.0004982064567556796,0.0005061777600637704,0.000494220805101634,-4.782781984854705e-05
1025536,0.05,0.05,0.05,-1.31,-1.34,-1.37,201.97,Lift,2509.0,0.0,0.0,0.0,0.0004543642885611798,0.00040653646871263445,0.0004224790753288163,0.000139497807891588
1028045,0.04,0.04,0.04,-1.23,-1.25,-1.28,202.67,Lift,2509.0,-3.985651654045437e-06,-3.985651654045437e-06,-3.985651654045437e-06,3.188521323236352e-05,3.587086488640896e-05,3.587086488640896e-05,0.000278995615783176
1030554,0.04,0.04,0.04,0.08,0.15,0.15,203.67,Lift,2509.0,0.0,0.0,0.0,0.0005221203666799522,0.0005579912315663611,0.0005699481865284974,0.00039856516540454366
1033063,0.04,0.04,0.04,-1.85,-1.76,-1.82,204.78,Lift,2509.0,0.0,0.0,0.0,-0.0007692307692307693,-0.0007612594659226783,-0.000785173375846951,0.0004424073335990489
1035572,0.02,0.02,0.02,-0.85,-0.9,-0.97,206.27,Lift,2509.0,-7.971303308090873e-06,-7.971303308090873e-06,-7.971303308090873e-06,0.00039856516540454366,0.00034276604224790753,0.0003387803905938621,0.0005938620964527736
1038081,0.04,0.03,0.04,-2.56,-2.59,-2.72,207.85,Lift,2509.0,7.971303308090873e-06,3.985651654045436e-06,7.971303308090873e-06,-0.0006815464328417696,-0.0006735751295336787,-0.0006974890394579515,0.0006297329613391726
1040590,0.05,0.06,0.06,-1.52,-1.58,-1.66,209.48,Lift,2509.0,3.985651654045437e-06,1.1956954962136309e-05,7.971303308090871e-06,0.0004145077720207254,0.00040255081705858897,0.0004224790753288164,0.0006496612196094043
1043099,0.05,0.05,0.05,-1.5,-1.44,-1.5,211.18,Lift,2509.0,0.0,-3.985651654045435e-06,-3.985651654045435e-06,7.97130330809088e-06,5.579912315663616e-05,6.377042646472696e-05,0.0006775607811877309
1045608,0.06,0.06,0.06,-0.99,-1.03,-0.98,212.93,Lift,2509.0,3.985651654045435e-06,3.985651654045435e-06,3.985651654045435e-06,0.00020326823435631725,0.00016341171781586287,0.0002072538860103627,0.0006974890394579514
1048117,0.05,0.05,0.05,-0.83,-0.89,-0.89,214.62,Lift,2509.0,-3.985651654045435e-06,-3.985651654045435e-06,-3.985651654045435e-06,6.3770426464727e-05,5.579912315663611e-05,3.587086488640892e-05,0.0006735751295336779
1050626,0.03,0.03,0.03,-0.79,-0.87,-0.89,215.98,Lift,2509.0,-7.971303308090875e-06,-7.971303308090875e-06,-7.971303308090875e-06,1.5942606616181716e-05,7.97130330809088e-06,0.0,0.0005420486249501735
1053135,0.06,0.07,0.06,-1.92,-2.0,-2.08,217.01,Lift,2509.0,1.1956954962136309e-05,1.594260661618175e-05,1.1956954962136309e-05,-0.00045037863690713427,-0.00045037863690713427,-0.0004742925468314069,0.0004105221203666804
1055644,0.07,0.06,0.07,-0.56,-0.44,-0.44,217.76,Lift,2509.0,3.98565165404544e-06,-3.98565165404544e-06,3.98565165404544e-06,0.0005420486249501793,0.0006217616580310881,0.0006536468712634516,0.0002989238740534077
1058153,-0.02,-0.02,-0.02,33.98,33.88,33.85,218.32,Lift,2509.0,-3.587086488640893e-05,-3.188521323236349e-05,-3.587086488640893e-05,0.013766440813072937,0.013678756476683937,0.013666799521721801,0.00022319649262654535
1060661,-0.29,-0.29,-0.29,7.95,7.89,7.78,218.74,Lift,2508.0,-0.00010765550239234448,-0.00010765550239234448,-0.00010765550239234448,-0.010378787878787878,-0.010362838915470496,-0.010394736842105264,0.00016746411483254222
1063170,-0.19,-0.2,-0.2,-4.79,-4.66,-4.53,219.02,Lift,2509.0,3.985651654045436e-05,3.587086488640892e-05,3.587086488640892e-05,-0.005077720207253886,-0.005001992825827023,-0.004906337186129933,0.00011159824631327267
1065679,-0.2,-0.2,-0.2,-4.13,-4.06,-4.08,219.19,Lift,2509.0,-3.98565165404544e-06,0.0,0.0,0.0002630530091669989,0.0002391390992427264,0.0001793543244320447,6.775607811876743e-05
1068188,-0.2,-0.19,-0.2,-1.1,-1.16,-1.15,218.98,Lift,2509.0,0.0,3.98565165404544e-06,0.0,0.0012076524511757671,0.0011558389796731763,0.0011677959346353128,-8.369868473495733e-05
1070697,-0.3,-0.3,-0.3,7.8,8.02,8.25,218.53,Lift,2509.0,-3.985651654045436e-05,-4.3842168194499796e-05,-3.985651654045436e-05,0.0035472299721004386,0.0036588282184137105,0.0037465125548027103,-0.0001793543244320401
1073206,-0.16,-0.15,-0.15,-0.19,-0.05,0.06,217.64,Lift,2509.0,5.5799123156636106e-05,5.9784774810681545e-05,5.9784774810681545e-05,-0.0031845356715823037,-0.0032164208848146675,-0.0032642487046632123,-0.00035472299721004975
1075715,-0.13,-0.13,-0.13,0.97,1.01,0.93,216.48,Lift,2509.0,1.1956954962136309e-05,7.97130330809087e-06,7.97130330809087e-06,0.0004623355918692706,0.0004224790753288163,0.000346751693901953,-0.0004623355918692693
1078224,-0.12,-0.12,-0.12,-2.24,-2.25,-2.39,215.07,Lift,2509.0,3.98565165404544e-06,3.98565165404544e-06,3.98565165404544e-06,-0.001279394180948585,-0.0012993224392188123,-0.001323236349143085,-0.0005619768832204052
1080733,-0.18,-0.18,-0.17,-2.08,-2.08,-2.06,213.57,Lift,2509.0,-2.3913909924272617e-05,-2.3913909924272617e-05,-1.992825827022719e-05,6.377042646472704e-05,6.775607811877239e-05,0.00013152650458349944,-0.0005978477481068154
1083242,-0.37,-0.37,-0.37,3.26,3.19,3.11,211.99,Lift,2509.0,-7.57273814268633e-05,-7.57273814268633e-05,-7.971303308090873e-05,0.002128337983260263,0.0021004384216819446,0.0020605819051414905,-0.0006297329613391726
1085751,-0.16,-0.16,-0.16,-1.85,-1.85,-1.82,210.26,Lift,2509.0,8.369868473495416e-05,8.369868473495416e-05,8.369868473495416e-05,-0.002036667995217218,-0.0020087684336389,-0.0019649262654444,-0.0006895177361498678
1087130,-0.07,-0.07,-0.07,-31.82,-31.68,-31.47,212.28,Lift,1379.0,6.526468455402465e-05,6.526468455402465e-05,6.526468455402465e-05,-0.02173313995649021,-0.021631617113850615,-0.021501087744742565,0.0014648295866570053
1088260,-0.15,-0.15,-0.15,-0.7,-0.67,-0.63,208.38,Lift,1130.0,-7.079646017699114e-05,-7.079646017699114e-05,-7.079646017699114e-05,0.027539823008849558,0.027442477876106194,0.027292035398230087,-0.0034513274336283235
1090769,-0.14,-0.14,-0.14,-1.69,-1.72,-1.73,206.56,Lift,2509.0,3.985651654045429e-06,3.985651654045429e-06,3.985651654045429e-06,-0.0003945795137504982,-0.00041849342367477076,-0.00043842168194499807,-0.0007253886010362668
1093278,-0.12,-0.12,-0.12,-0.99,-0.93,-0.9,205.05,Lift,2509.0,7.97130330809088e-06,7.97130330809088e-06,7.97130330809088e-06,0.00027899561578318056,0.00031486648066958943,0.0003308090872857712,-0.0006018333997608573
1095787,-0.13,-0.13,-0.13,-0.86,-0.83,-0.87,203.88,Lift,2509.0,-3.98565165404544e-06,-3.98565165404544e-06,-3.98565165404544e-06,5.1813471502590674e-05,3.98565165404544e-05,1.195695496213632e-05,-0.0004663212435233224
1098296,-0.12,-0.12,-0.12,-0.34,-0.38,-0.3,203.01,Lift,2509.0,3.98565165404544e-06,3.98565165404544e-06,3.98565165404544e-06,0.0002072538860103627,0.00017935432443204463,0.0002271821442805899,-0.0003467516939019548
1100805,-0.13,-0.13,-0.13,-0.92,-0.86,-0.93,202.4,Lift,2509.0,-3.98565165404544e-06,-3.98565165404544e-06,-3.98565165404544e-06,-0.00023116779593463534,-0.00019131127939418094,-0.0002510960542048625,-0.00024312475089676574
1103314,-0.13,-0.13,-0.13,-2.08,-2.11,-2.07,202.0,Lift,2509.0,0.0,0.0,0.0,-0.0004623355918692707,-0.0004982064567556796,-0.00045436428856117963,-0.00015942606616181973
1105823,-0.17,-0.17,-0.17,-2.02,-1.96,-1.94,201.67,Lift,2509.0,-1.594260661618175e-05,-1.594260661618175e-05,-1.594260661618175e-05,2.391390992427264e-05,5.978477481068151e-05,5.181347150259063e-05,-0.00013152650458350437
1108332,-0.18,-0.17,-0.18,-5.27,-5.66,-5.98,201.53,Lift,2509.0,-3.985651654045429e-06,0.0,-3.985651654045429e-06,-0.0012953367875647667,-0.0014746911119968115,-0.0016102032682343568,-5.579912315663067e-05
1110841,-0.09,-0.09,-0.09,-5.5,-5.49,-5.54,201.86,Lift,2509.0,3.5870864886408924e-05,3.18852132323635e-05,3.5870864886408924e-05,-9.166998804304521e-05,6.775607811877239e-05,0.00017536867277799935,0.00013152650458350437
1113350,-0.17,-0.17,-0.17,-3.51,-3.46,-3.47,202.66,Lift,2509.0,-3.18852132323635e-05,-3.18852132323635e-05,-3.18852132323635e-05,0.000793144679155042,0.0008090872857712237,0.0008250298923874053,0.00031885213232362813
1115859,-0.15,-0.15,-0.15,-0.05,0.0,-0.03,203.76,Lift,2509.0,7.97130330809088e-06,7.97130330809088e-06,7.97130330809088e-06,0.001379035472299721,0.001379035472299721,0.0013710641689916303,0.00043842168194499574
1118368,-0.16,-0.16,-0.16,0.56,0.71,0.67,205.02,Lift,2509.0,-3.98565165404544e-06,-3.98565165404544e-06,-3.98565165404544e-06,0.00024312475089677165,0.000282981267437226,0.00027899561578318056,0.0005021921084097327
1120877,-0.14,-0.13,-0.13,-2.79,-2.75,-2.79,206.46,Lift,2509.0,7.97130330809087e-06,1.1956954962136309e-05,1.1956954962136309e-05,-0.0013351933041052212,-0.001379035472299721,-0.001379035472299721,0.0005739338381825419
1123386,-0.15,-0.15,-0.15,0.69,0.73,0.68,207.69,Lift,2509.0,-3.985651654045429e-06,-7.97130330809087e-06,-7.97130330809087e-06,0.0013870067756078118,0.0013870067756078118,0.0013830211239537664,0.0004902351534475846
1125895,-0.16,-0.16,-0.16,-3.57,-3.53,-3.53,209.31,Lift,2509.0,-3.98565165404544e-06,-3.98565165404544e-06,-3.98565165404544e-06,-0.0016978876046233559,-0.0016978876046233559,-0.0016779593463531288,0.0006456755679553625
1128404,-0.15,-0.15,-0.15,-2.52,-2.58,-2.64,211.06,Lift,2509.0,3.98565165404544e-06,3.98565165404544e-06,3.98565165404544e-06,0.00041849342367477076,0.00037863690713431635,0.00035472299721004373,0.0006974890394579514
1130913,-0.15,-0.15,-0.15,-1.73,-1.73,-1.72,212.78,Lift,2509.0,0.0,0.0,0.0,0.0003148664806695895,0.0003387803905938621,0.0003666799521721802,0.0006855320844958146
1133422,-0.15,-0.15,-0.15,-2.04,-1.9,-1.78,214.47,Lift,2509.0,0.0,0.0,0.0,-0.00012355520127540855,-6.775607811877239e-05,-2.391390992427264e-05,0.0006735751295336779
1135931,-0.16,-0.16,-0.16,-0.9,-0.95,-0.98,215.9,Lift,2509.0,-3.98565165404544e-06,-3.98565165404544e-06,-3.98565165404544e-06,0.0004543642885611798,0.00037863690713431646,0.0003188521323236349,0.0005699481865285001
1138440,-0.18,-0.18,-0.18,-2.71,-2.69,-2.58,216.96,Lift,2509.0,-7.97130330809087e-06,-7.97130330809087e-06,-7.97130330809087e-06,-0.000721402949382224,-0.0006935033878039059,-0.0006377042646472698,0.00042247907532881715
1140949,-0.17,-0.17,-0.18,-2.26,-2.31,-2.25,217.71,Lift,2509.0,3.985651654045429e-06,3.985651654045429e-06,0.0,0.0001793543244320447,0.00015145476285372654,0.00013152650458349944,0.0002989238740534077
1143458,-0.18,-0.18,-0.18,-2.79,-2.67,-2.6,218.28,Lift,2509.0,-3.985651654045429e-06,-3.985651654045429e-06,0.0,-0.00021123953766440822,-0.00014348345954563567,-0.0001394978078915903,0.00022718214428058716
1145967,-0.19,-0.19,-0.18,-2.09,-2.13,-2.02,218.66,Lift,2509.0,-3.98565165404544e-06,-3.98565165404544e-06,0.0,0.0002789956157831806,0.0002152251893184536,0.00023116779593463534,0.00015145476285372477
1148476,-0.18,-0.18,-0.18,-2.51,-2.44,-2.41,218.92,Lift,2509.0,3.98565165404544e-06,3.98565165404544e-06,0.0,-0.0001673973694699083,-0.00012355520127540855,-0.00015544041450777206,0.00010362694300517772
1150985,-0.17,-0.17,-0.17,-0.96,-0.77,-0.74,219.08,Lift,2509.0,3.985651654045429e-06,3.985651654045429e-06,3.985651654045429e-06,0.0006177760063770426,0.0006656038262255879,0.0006656038262255879,6.377042646473695e-05
1153494,-0.18,-0.18,-0.18,-0.67,-0.73,-0.78,218.95,Lift,2509.0,-3.985651654045429e-06,-3.985651654045429e-06,-3.985651654045429e-06,0.00011558389796731763,1.594260661618176e-05,-1.594260661618176e-05,-5.181347150260019e-05
1156003,-0.18,-0.18,-0.18,-2.37,-2.35,-2.34,218.33,Lift,2509.0,0.0,0.0,0.0,-0.0006775607811877242,-0.0006456755679553608,-0.000621761658031088,-0.00024711040255080756
1158512,-0.17,-0.17,-0.17,-11.02,-10.97,-10.98,217.41,Lift,2509.0,3.985651654045429e-06,3.985651654045429e-06,3.985651654045429e-06,-0.003447588680749302,-0.0034356317257871667,-0.0034436030290952574,-0.0003666799521721865
1161021,-0.17,-0.16,-0.17,-0.66,-0.56,-0.53,216.22,Lift,2509.0,0.0,3.98565165404544e-06,0.0,0.004129135113591072,0.004149063371861299,0.004165005978477482,-0.000474292546831406
1163530,-0.17,-0.17,-0.18,-5.01,-4.83,-4.78,214.9,Lift,2509.0,0.0,-3.98565165404544e-06,-3.985651654045429e-06,-0.0017337584695097648,-0.0017018732562774012,-0.0016939019529693105,-0.0005261060183339948
1166039,-0.15,-0.15,-0.15,-2.18,-2.15,-2.18,213.41,Lift,2509.0,7.97130330809088e-06,7.97130330809088e-06,1.1956954962136309e-05,0.0011279394180948583,0.001068154643284177,0.0010362694300518134,-0.0005938620964527736
1168548,-0.34,-0.34,-0.34,-10.08,-10.19,-10.27,211.82,Lift,2509.0,-7.572738142686331e-05,-7.572738142686331e-05,-7.572738142686331e-05,-0.0031486648066958948,-0.0032044639298525308,-0.0032243921881227582,-0.0006337186129932258
1171057,-0.13,-0.13,-0.13,0.31,0.23,0.18,210.17,Lift,2509.0,8.369868473495417e-05,8.369868473495417e-05,8.369868473495417e-05,0.004141092068553209,0.004153049023515345,0.004165005978477481,-0.0006576325229174992
1173566,-0.21,-0.21,-0.21,-3.47,-3.49,-3.5,208.5,Lift,2509.0,-3.1885213232363485e-05,-3.1885213232363485e-05,-3.1885213232363485e-05,-0.0015065763252291751,-0.0014826624153049025,-0.0014667198086887206,-0.0006656038262255829
1176075,-0.19,-0.19,-0.19,-0.92,-0.91,-0.92,206.8,Lift,2509.0,7.97130330809087e-06,7.97130330809087e-06,7.97130330809087e-06,0.0010163411717815864,0.0010282981267437227,0.0010282981267437227,-0.0006775607811877197
1178584,-0.18,-0.19,-0.19,-1.18,-1.09,-1.17,205.39,Lift,2509.0,3.98565165404544e-06,0.0,0.0,-0.00010362694300518131,-7.174172977281788e-05,-9.964129135113586e-05,-0.0005619768832204165
1181093,-0.18,-0.17,-0.17,-1.07,-1.07,-1.0,204.6,Lift,2509.0,0.0,7.97130330809087e-06,7.97130330809087e-06,4.384216819449975e-05,7.97130330809088e-06,6.775607811877239e-05,-0.0003148664806695863
1183602,-0.16,-0.17,-0.17,-2.46,-2.51,-2.6,203.78,Lift,2509.0,7.97130330809087e-06,0.0,0.0,-0.0005540055799123156,-0.0005739338381825427,-0.0006377042646472698,-0.0003268234356317231
1186111,-0.18,-0.19,-0.18,-7.16,-7.02,-6.83,203.19,Lift,2509.0,-7.97130330809087e-06,-7.97130330809087e-06,-3.985651654045429e-06,-0.0018732562774013552,-0.0017975288959744917,-0.0016859306496612198,-0.00023515344758868212
1188620,-0.15,-0.15,-0.15,-1.63,-1.79,-1.88,202.76,Lift,2509.0,1.1956954962136309e-05,1.594260661618175e-05,1.1956954962136309e-05,0.0022040653646871263,0.002084495815065763,0.001972897568752491,-0.00017138302112395647
1191129,-0.2,-0.2,-0.2,1.98,2.02,1.95,202.45,Lift,2509.0,-1.992825827022719e-05,-1.992825827022719e-05,-1.992825827022719e-05,0.0014388202471104024,0.0015185332801913112,0.0015265045834994021,-0.00012355520127540944
1193638,-0.11,-0.11,-0.11,-2.43,-2.43,-2.39,202.29,Lift,2509.0,3.587086488640893e-05,3.587086488640893e-05,3.587086488640893e-05,-0.0017576723794340376,-0.0017736149860502193,-0.0017297728178557194,-6.377042646472563e-05
1196147,-0.08,-0.08,-0.09,-1.08,-1.05,-0.92,202.51,Lift,2509.0,1.1956954962136309e-05,1.1956954962136309e-05,7.971303308090875e-06,0.000538062973296134,0.0005500199282582703,0.0005858907931446792,8.768433638899914e-05
1198656,-0.16,-0.16,-0.16,3.37,3.16,2.82,203.19,Lift,2509.0,-3.188521323236349e-05,-3.188521323236349e-05,-2.7899561578318056e-05,0.0017736149860502193,0.0016779593463531288,0.0014906337186129932,0.0002710243124750924
1201165,-0.12,-0.12,-0.12,-0.79,-0.9,-0.97,204.14,Lift,2509.0,1.594260661618175e-05,1.594260661618175e-05,1.594260661618175e-05,-0.0016580310880829016,-0.0016181745715424475,-0.0015105619768832205,0.0003786369071343119
1203674,-0.13,-0.13,-0.13,-4.15,-4.21,-4.28,205.33,Lift,2509.0,-3.98565165404544e-06,-3.98565165404544e-06,-3.98565165404544e-06,-0.0013391789557592668,-0.0013192506974890395,-0.0013192506974890397,0.00047429254683141735
1206183,-0.12,-0.13,-0.12,-2.73,-2.6,-2.53,206.75,Lift,2509.0,3.98565165404544e-06,0.0,3.98565165404544e-06,0.0005659625348744522,0.0006416899163013152,0.0006974890394579516,0.000565962534874447
1208692,-0.12,-0.12,-0.12,-1.89,-1.85,-1.88,208.25,Lift,2509.0,0.0,3.98565165404544e-06,0.0,0.0003347947389398167,0.0002989238740534077,0.00025906735751295336,0.0005978477481068154
1211201,-0.11,-0.11,-0.11,0.73,0.76,0.82,209.87,Lift,2509.0,3.985651654045435e-06,3.985651654045435e-06,3.985651654045435e-06,0.0010442407333599044,0.001040255081705859,0.0010761259465922677,0.0006456755679553625
1213710,-0.12,-0.12,-0.12,-0.53,-0.55,-0.61,211.53,Lift,2509.0,-3.985651654045435e-06,-3.985651654045435e-06,-3.985651654045435e-06,-0.000502192108409725,-0.0005221203666799522,-0.0005699481865284974,0.0006616181745715411
1216219,-0.11,-0.11,-0.11,-2.92,-2.85,-2.9,213.25,Lift,2509.0,3.985651654045435e-06,3.985651654045435e-06,3.985651654045435e-06,-0.0009525707453168591,-0.0009166998804304503,-0.000912714228776405,0.0006855320844958146
1218728,-0.12,-0.12,-0.12,-0.13,-0.06,-0.09,214.95,Lift,2509.0,-3.985651654045435e-06,-3.985651654045435e-06,-3.985651654045435e-06,0.0011119968114786769,0.0011119968114786769,0.0011199681147867676,0.0006775607811877197
1221237,-0.12,-0.12,-0.12,-0.95,-0.89,-0.97,216.39,Lift,2509.0,0.0,0.0,0.0,-0.00032682343563172575,-0.00033080908728577127,-0.0003507373455559984,0.0005739338381825419
1223746,-0.15,-0.15,-0.15,-1.57,-1.6,-1.64,217.43,Lift,2509.0,-1.1956954962136309e-05,-1.1956954962136309e-05,-1.1956954962136309e-05,-0.0002471104025508171,-0.00028298126743722603,-0.0002670386608210442,0.0004145077720207335
1226255,-0.04,-0.03,-0.03,-1.45,-1.4,-1.34,218.23,Lift,2509.0,4.3842168194499796e-05,4.7827819848545235e-05,4.7827819848545235e-05,4.782781984854528e-05,7.97130330809088e-05,0.00011956954962136302,0.00031885213232362813
1228764,-0.07,-0.07,-0.07,2.02,2.0,2.01,218.76,Lift,2509.0,-1.1956954962136312e-05,-1.594260661618175e-05,-1.594260661618175e-05,0.0013830211239537664,0.0013551215623754484,0.001335193304105221,0.00021123953766440858
1231273,-0.12,-0.12,-0.12,-1.05,-1.03,-0.99,219.19,Lift,2509.0,-1.992825827022718e-05,-1.992825827022718e-05,-1.992825827022718e-05,-0.001223595057791949,-0.0012076524511757674,-0.0011956954962136308,0.00017138302112395647
1233782,-0.12,-0.12,-0.12,-1.85,-1.85,-1.95,219.43,Lift,2509.0,0.0,0.0,0.0,-0.0003188521323236349,-0.0003268234356317258,-0.0003826225587883619,9.56556396970941e-05
1236291,-0.11,-0.11,-0.11,-1.83,-1.84,-1.91,219.61,Lift,2509.0,3.985651654045435e-06,3.985651654045435e-06,3.985651654045435e-06,7.97130330809088e-06,3.98565165404544e-06,1.594260661618176e-05,7.174172977282057e-05
1238800,-0.11,-0.11,-0.11,-1.76,-1.86,-1.87,219.75,Lift,2509.0,0.0,0.0,0.0,2.789956157831808e-05,-7.97130330809088e-06,1.594260661618167e-05,5.579912315663067e-05
1241309,-0.1,-0.1,-0.1,0.5,0.46,0.39,219.81,Lift,2509.0,3.985651654045435e-06,3.985651654045435e-06,3.985651654045435e-06,0.0009007572738142685,0.0009246711837385414,0.0009007572738142688,2.3913909924273525e-05
1243818,-0.11,-0.11,-0.11,-2.82,-2.81,-2.77,219.83,Lift,2509.0,-3.985651654045435e-06,-3.985651654045435e-06,-3.985651654045435e-06,-0.0013232363491430849,-0.0013033080908728576,-0.001259465922678358,7.97130330809495e-06
1246327,-0.11,-0.1,-0.1,-0.12,-0.16,-0.25,219.38,Lift,2509.0,0.0,3.985651654045435e-06,3.985651654045435e-06,0.0010761259465922677,0.0010561976883220407,0.00100438421681945,-0.00017935432443205143
1248836,-0.1,-0.1,-0.1,-0.05,-0.08,0.03,218.8,Lift,2509.0,3.985651654045435e-06,0.0,0.0,2.7899561578318053e-05,3.188521323236349e-05,0.00011159824631327223,-0.00023116779593462897
1251345,-0.11,-0.11,-0.12,-2.57,-2.57,-2.63,218.43,Lift,2509.0,-3.985651654045435e-06,-3.985651654045435e-06,-7.97130330809087e-06,-0.00100438421681945,-0.0009924272618573135,-0.001060183339976086,-0.00014746911119968296
1253854,-0.1,-0.11,-0.1,3.15,2.87,2.69,218.16,Lift,2509.0,3.985651654045435e-06,0.0,7.97130330809087e-06,0.0022797927461139897,0.0021681944998007173,0.002120366679952172,-0.00010761259465923086
1256363,-0.11,-0.11,-0.11,-1.66,-1.69,-1.66,217.97,Lift,2509.0,-3.985651654045435e-06,0.0,-3.985651654045435e-06,-0.0019170984455958548,-0.0018174571542447192,-0.0017337584695097648,-7.572738142686239e-05
1258872,-0.11,-0.11,-0.1,-0.48,-0.55,-0.53,217.82,Lift,2509.0,0.0,0.0,3.985651654045435e-06,0.00047030689517736147,0.00045436428856117974,0.00045037863690713427,-5.9784774810683815e-05
1261381,-0.11,-0.12,-0.11,0.92,0.82,0.75,217.74,Lift,2509.0,0.0,-3.985651654045435e-06,-3.985651654045435e-06,0.0005579912315663611,0.0005460342766042248,0.0005101634117178159,-3.188521323235715e-05
1263890,-0.12,-0.12,-0.12,-0.96,-0.92,-0.92,217.59,Lift,2509.0,-3.985651654045435e-06,0.0,-3.985651654045435e-06,-0.000749302510960542,-0.0006935033878039059,-0.0006656038262255879,-5.9784774810683815e-05
1266399,-0.09,-0.09,-0.1,-0.4,-0.37,-0.31,217.34,Lift,2509.0,1.1956954962136309e-05,1.1956954962136309e-05,7.97130330809087e-06,0.00022319649262654442,0.00021921084097249903,0.00024312475089677165,-9.964129135113592e-05
1268908,-0.14,-0.14,-0.14,-0.58,-0.45,-0.38,216.65,Lift,2509.0,-1.992825827022719e-05,-1.992825827022719e-05,-1.594260661618175e-05,-7.174172977281784e-05,-3.18852132323635e-05,-2.7899561578318056e-05,-0.0002750099641291342
1271417,-0.13,-0.13,-0.13,-2.68,-2.79,-2.84,215.68,Lift,2509.0,3.98565165404544e-06,3.98565165404544e-06,3.98565165404544e-06,-0.0008369868473495417,-0.0009326424870466321,-0.0009804703068951775,-0.00038660821044240686
1273926,-0.12,-0.12,-0.12,-0.93,-1.02,-1.0,214.82,Lift,2509.0,3.98565165404544e-06,3.98565165404544e-06,3.98565165404544e-06,0.0006974890394579514,0.0007054603427660422,0.0007333599043443603,-0.00034276604224791295
1276435,-0.1,-0.1,-0.1,-6.28,-6.21,-6.19,214.15,Lift,2509.0,7.97130330809087e-06,7.97130330809087e-06,7.97130330809087e-06,-0.002132323634914309,-0.0020685532084495813,-0.0020685532084495817,-0.00026703866082103926
1278944,-0.06,-0.07,-0.06,1.05,1.06,1.12,213.69,Lift,2509.0,1.594260661618175e-05,1.1956954962136309e-05,1.594260661618175e-05,0.002921482662415305,0.0028975687524910323,0.002913511359107214,-0.00018333997608609325
1281453,-0.08,-0.08,-0.08,0.85,0.81,0.79,213.3,Lift,2509.0,-7.971303308090875e-06,-3.985651654045435e-06,-7.971303308090875e-06,-7.971303308090875e-05,-9.964129135113592e-05,-0.00013152650458349944,-0.0001554404145077666
1283962,-0.09,-0.09,-0.09,-1.36,-1.31,-1.31,213.06,Lift,2509.0,-3.985651654045435e-06,-3.985651654045435e-06,-3.985651654045435e-06,-0.0008808290155440414,-0.0008449581506576326,-0.0008369868473495417,-9.56556396970941e-05
1286471,-0.09,-0.1,-0.09,-2.14,-2.08,-2.05,212.88,Lift,2509.0,0.0,-3.98565165404544e-06,0.0,-0.00031088082901554407,-0.0003068951773614986,-0.0002949382223993622,-7.174172977282057e-05
1288980,-0.08,-0.08,-0.09,-1.67,-1.7,-1.74,212.76,Lift,2509.0,3.985651654045435e-06,7.971303308090875e-06,0.0,0.0001873256277401356,0.00015145476285372664,0.00012355520127540847,-4.782781984854705e-05
1291489,-0.09,-0.09,-0.09,-2.82,-2.76,-2.71,212.75,Lift,2509.0,-3.985651654045435e-06,-3.985651654045435e-06,0.0,-0.00045834994021522516,-0.0004224790753288162,-0.0003866082104424073,-3.985651654041811e-06
1293998,-0.08,-0.08,-0.08,1.64,1.75,1.9,212.53,Lift,2509.0,3.985651654045435e-06,3.985651654045435e-06,3.985651654045435e-06,0.0017776006377042647,0.0017975288959744917,0.001837385412514946,-8.768433638899914e-05
1296507,-0.11,-0.12,-0.11,-0.12,-0.05,-0.06,211.94,Lift,2509.0,-1.1956954962136309e-05,-1.5942606616181743e-05,-1.1956954962136309e-05,-0.0007014746911119967,-0.0007174172977281786,-0.0007811877241929055,-0.00023515344758868212
1299016,-0.08,-0.07,-0.07,0.26,0.24,0.32,211.01,Lift,2509.0,1.1956954962136309e-05,1.992825827022718e-05,1.5942606616181743e-05,0.0001514547628537266,0.00011558389796731764,0.0001514547628537266,-0.00037066560382622833
1301525,-0.09,-0.09,-0.09,2.63,2.57,2.58,209.82,Lift,2509.0,-3.985651654045435e-06,-7.97130330809087e-06,-7.97130330809087e-06,0.0009445994420087685,0.0009286568353925867,0.0009007572738142688,-0.000474292546831406
1304034,-0.1,-0.1,-0.1,-3.01,-3.08,-3.22,208.47,Lift,2509.0,-3.98565165404544e-06,-3.98565165404544e-06,-3.98565165404544e-06,-0.002247907532881626,-0.002251893184535672,-0.0023116779593463535,-0.0005380629732961317
1306543,-0.09,-0.09,-0.09,-1.2,-1.25,-1.27,206.92,Lift,2509.0,3.98565165404544e-06,3.98565165404544e-06,3.98565165404544e-06,0.0007214029493822239,0.0007293742526903149,0.0007772020725388602,-0.0006177760063770472
1309052,-0.1,-0.1,-0.1,-3.89,-4.01,-4.06,205.54,Lift,2509.0,-3.98565165404544e-06,-3.98565165404544e-06,-3.98565165404544e-06,-0.0010721402949382226,-0.0011000398565165403,-0.0011119968114786767,-0.0005500199282582684
1311561,-0.09,-0.09,-0.09,0.44,0.46,0.37,204.63,Lift,2509.0,3.98565165404544e-06,3.98565165404544e-06,3.98565165404544e-06,0.001725787166201674,0.00178158628935831,0.0017656436827421281,-0.0003626943005181334
1314070,-0.07,-0.07,-0.07,-3.42,-3.43,-3.37,203.94,Lift,2509.0,7.97130330809087e-06,7.97130330809087e-06,7.97130330809087e-06,-0.0015384615384615385,-0.0015504184934236748,-0.0014906337186129932,-0.0002750099641291342
1316579,-0.02,-0.02,-0.02,-28.17,-27.96,-27.81,203.42,Lift,2509.0,1.9928258270227182e-05,1.9928258270227182e-05,1.9928258270227182e-05,-0.009864487843762456,-0.009776803507373456,-0.009740932642487045,-0.00020725388601036676
1319088,-0.07,-0.08,-0.07,-8.02,-8.1,-8.1,203.02,Lift,2509.0,-1.9928258270227182e-05,-2.3913909924272617e-05,-1.9928258270227182e-05,0.008031088082901556,0.007915504184934237,0.007855719410123555,-0.0001594260661618084
1321597,-0.05,-0.04,-0.05,0.85,0.97,0.98,202.71,Lift,2509.0,7.971303308090875e-06,1.5942606616181746e-05,7.971303308090875e-06,0.003535273017138302,0.003614986050219211,0.0036189717018732565,-0.00012355520127540944
1324106,-0.04,-0.04,-0.04,-5.18,-5.27,-5.35,202.55,Lift,2509.0,3.985651654045437e-06,0.0,3.985651654045437e-06,-0.002403347947389398,-0.002487046632124352,-0.0025229174970107615,-6.377042646472563e-05
1326615,-0.02,-0.02,-0.02,-2.89,-2.75,-2.58,202.85,Lift,2509.0,7.971303308090873e-06,7.971303308090873e-06,7.971303308090873e-06,0.0009127142287764047,0.0010043842168194499,0.0011040255081705857,0.0001195695496213563
1329124,-0.06,-0.06,-0.07,-2.4,-2.27,-2.24,203.61,Lift,2509.0,-1.5942606616181743e-05,-1.5942606616181743e-05,-1.9928258270227182e-05,0.00019529693104822647,0.00019131127939418094,0.00013551215623754478,0.0003029095257074609
1331633,-0.05,-0.05,-0.05,-10.21,-10.14,-10.06,204.65,Lift,2509.0,3.985651654045435e-06,3.985651654045435e-06,7.971303308090875e-06,-0.003112793941809486,-0.003136707851733759,-0.0031167795934635314,0.0004145077720207222
1334142,-0.17,-0.17,-0.18,-28.76,-28.73,-28.66,205.91,Lift,2509.0,-4.782781984854524e-05,-4.782781984854524e-05,-5.1813471502590674e-05,-0.0073933838182542845,-0.007409326424870466,-0.0074133120765245124,0.0005021921084097214
1336651,-0.12,-0.12,-0.12,-3.2,-3.07,-3.03,207.34,Lift,2509.0,1.992825827022719e-05,1.992825827022719e-05,2.3913909924272617e-05,0.010187325627740136,0.01022718214428059,0.010215225189318453,0.0005699481865285001
1339160,-0.15,-0.15,-0.15,-0.73,-0.7,-0.67,208.88,Lift,2509.0,-1.1956954962136309e-05,-1.1956954962136309e-05,-1.1956954962136309e-05,0.0009844559585492228,0.0009445994420087685,0.0009406137903547229,0.000613790354722994
1341669,-0.16,-0.16,-0.16,-0.98,-0.99,-0.95,210.48,Lift,2509.0,-3.98565165404544e-06,-3.98565165404544e-06,-3.98565165404544e-06,-9.964129135113592e-05,-0.00011558389796731767,-0.00011159824631327219,0.0006377042646472675
1344178,-0.14,-0.14,-0.14,-5.39,-5.55,-5.66,212.18,Lift,2509.0,7.97130330809087e-06,7.97130330809087e-06,7.97130330809087e-06,-0.0017576723794340376,-0.001817457154244719,-0.0018772419290554005,0.0006775607811877309
1346687,-0.15,-0.15,-0.14,-4.15,-4.08,-4.01,213.59,Lift,2509.0,-3.985651654045429e-06,-3.985651654045429e-06,0.0,0.0004942208051016339,0.0005858907931446791,0.0006576325229174972,0.0005619768832204052
1349196,-0.16,-0.16,-0.16,-3.36,-3.4,-3.52,215.36,Lift,2509.0,-3.98565165404544e-06,-3.98565165404544e-06,-7.97130330809087e-06,0.00031486648066958965,0.0002710243124750897,0.0001952969310482263,0.0007054603427660463
1351705,-0.15,-0.15,-0.16,-7.76,-7.8,-7.82,216.83,Lift,2509.0,3.98565165404544e-06,3.98565165404544e-06,0.0,-0.0017536867277799923,-0.0017536867277799923,-0.001713830211239538,0.0005858907931446787
1354214,-0.14,-0.14,-0.15,4.37,4.41,4.34,217.9,Lift,2509.0,3.985651654045429e-06,3.985651654045429e-06,3.98565165404544e-06,0.004834595456357114,0.004866480669589478,0.004846552411319251,0.000426464726982859
1356723,-0.05,-0.05,-0.05,-1.11,-1.05,-1.12,218.67,Lift,2509.0,3.587086488640893e-05,3.587086488640893e-05,3.9856516540454363e-05,-0.0021841371064168992,-0.0021761658031088085,-0.0021761658031088085,0.00030689517736149133
1359232,-0.07,-0.07,-0.07,5.82,5.79,5.66,219.25,Lift,2509.0,-7.971303308090875e-06,-7.971303308090875e-06,-7.971303308090875e-06,0.0027620565962534877,0.0027261857313670783,0.002702271821442806,0.0002311677959346403
1361741,-0.12,-0.12,-0.12,-0.98,-1.05,-1.01,219.61,Lift,2509.0,-1.992825827022718e-05,-1.992825827022718e-05,-1.992825827022718e-05,-0.002710243124750897,-0.0027261857313670783,-0.002658429653248306,0.00014348345954564115
1364250,-0.19,-0.19,-0.2,0.99,0.76,0.47,219.91,Lift,2509.0,-2.7899561578318056e-05,-2.7899561578318056e-05,-3.18852132323635e-05,0.000785173375846951,0.000721402949382224,0.0005898764447987246,0.0001195695496213563
1366759,0.01,0.01,0.01,-8.53,-8.56,-8.73,220.34,Lift,2509.0,7.971303308090873e-05,7.971303308090873e-05,8.369868473495417e-05,-0.003794340374651255,-0.003714627341570347,-0.003666799521721802,0.00017138302112395647
1369268,0.01,0.02,0.01,-0.7,-0.63,-0.45,220.39,Lift,2509.0,0.0,3.9856516540454365e-06,0.0,0.0031207652451175766,0.0031606217616580315,0.0033001195695496217,1.9928258270220385e-05
1371777,-0.01,-0.01,-0.01,3.48,3.62,3.72,219.93,Lift,2509.0,-7.971303308090873e-06,-1.1956954962136309e-05,-7.971303308090873e-06,0.0016660023913909923,0.0016939019529693105,0.001662016739736947,-0.00018333997608608192
1374286,0.04,0.04,0.05,9.05,9.07,9.18,219.09,Lift,2509.0,1.9928258270227182e-05,1.9928258270227182e-05,2.391390992427262e-05,0.002220007971303308,0.002172180151454763,0.002176165803108808,-0.00033479473893981805
1376795,0.06,0.06,0.06,-13.63,-13.61,-13.65,218.02,Lift,2509.0,7.971303308090871e-06,7.971303308090871e-06,3.985651654045435e-06,-0.009039457951375049,-0.009039457951375049,-0.00909924272618573,-0.000426464726982859
1379304,-0.09,-0.09,-0.09,5.6,5.79,5.89,216.66,Lift,2509.0,-5.9784774810681545e-05,-5.9784774810681545e-05,-5.9784774810681545e-05,0.0076644081307293745,0.007732164208848146,0.007787963332004782,-0.0005420486249501848
1381813,0.01,0.01,0.01,-1.71,-1.7,-1.77,215.08,Lift,2509.0,3.9856516540454363e-05,3.9856516540454363e-05,3.9856516540454363e-05,-0.0029135113591072137,-0.002985253088880032,-0.0030530091669988043,-0.0006297329613391726
1384322,-0.01,-0.0,-0.0,-0.47,-0.41,-0.43,213.42,Lift,2509.0,-7.971303308090873e-06,-3.9856516540454365e-06,-3.9856516540454365e-06,0.0004942208051016341,0.0005141490633718613,0.0005340773216420885,-0.0006616181745715524
1386830,-0.01,-0.01,-0.01,1.59,1.57,1.58,211.71,Lift,2508.0,0.0,-3.987240829346093e-06,-3.987240829346093e-06,0.0008213716108452951,0.0007894736842105263,0.0008014354066985647,-0.0006818181818181736
1389339,0.03,0.03,0.03,-2.36,-2.35,-2.29,209.94,Lift,2509.0,1.5942606616181746e-05,1.5942606616181746e-05,1.5942606616181746e-05,-0.0015743324033479474,-0.001562375448385811,-0.001542447190115584,-0.0007054603427660463
1391848,0.04,0.03,0.04,-2.05,-2.13,-2.24,208.2,Lift,2509.0,3.985651654045437e-06,0.0,3.985651654045437e-06,0.00012355520127540855,8.768433638899967e-05,1.992825827022711e-05,-0.0006935033878039096
1394357,0.02,0.02,0.02,0.23,0.23,0.18,206.75,Lift,2509.0,-7.971303308090873e-06,-3.985651654045436e-06,-7.971303308090873e-06,0.0009087285771223595,0.0009406137903547229,0.0009645277002789958,-0.0005779194898365837
1396866,-0.03,-0.02,-0.03,-1.01,-1.0,-1.02,205.87,Lift,2509.0,-1.9928258270227182e-05,-1.5942606616181746e-05,-1.9928258270227182e-05,-0.0004942208051016341,-0.0004902351534475887,-0.00047827819848545236,-0.0003507373455559966
1399375,-0.03,-0.02,-0.03,-7.77,-7.79,-7.89,205.07,Lift,2509.0,0.0,0.0,0.0,-0.002694300518134715,-0.0027062574730968513,-0.0027381426863292146,-0.00031885213232363946
1401884,-0.01,-0.01,-0.01,0.26,0.3,0.21,204.56,Lift,2509.0,7.971303308090871e-06,3.9856516540454365e-06,7.971303308090871e-06,0.003200478278198485,0.0032243921881227582,0.0032283778397768034,-0.00020326823435631364
1404393,0.05,0.05,0.05,-5.63,-5.92,-6.15,204.18,Lift,2509.0,2.391390992427262e-05,2.391390992427262e-05,2.391390992427262e-05,-0.002347548824232762,-0.0024790753288162614,-0.002534874451972898,-0.00015145476285372477
1406902,0.02,0.02,0.02,0.5,0.5,0.63,203.92,Lift,2509.0,-1.195695496213631e-05,-1.195695496213631e-05,-1.195695496213631e-05,0.0024432044639298525,0.00255878836189717,0.002702271821442806,-0.00010362694300518905
1409411,0.03,0.03,0.03,-0.52,-0.71,-0.79,203.73,Lift,2509.0,3.985651654045436e-06,3.985651654045436e-06,3.985651654045436e-06,-0.0004065364687126345,-0.0004822638501394978,-0.000565962534874452,-7.572738142686239e-05
1411920,0.05,0.05,0.05,-2.2,-2.18,-2.13,203.89,Lift,2509.0,7.971303308090875e-06,7.971303308090875e-06,7.971303308090875e-06,-0.0006695894778796334,-0.0005858907931446792,-0.0005340773216420884,6.377042646472563e-05
1414429,0.02,0.02,0.02,-7.4,-7.31,-7.15,204.54,Lift,2509.0,-1.195695496213631e-05,-1.195695496213631e-05,-1.195695496213631e-05,-0.002072538860103627,-0.0020446392985253086,-0.0020007971303308094,0.00025906735751295563
1416938,-0.08,-0.08,-0.08,-11.15,-11.13,-11.07,205.47,Lift,2509.0,-3.9856516540454363e-05,-3.9856516540454363e-05,-3.9856516540454363e-05,-0.0014946193702670386,-0.0015225189318453572,-0.001562375448385811,0.00037066560382622833
1419447,-0.03,-0.03,-0.03,1.73,1.79,1.83,206.64,Lift,2509.0,1.9928258270227182e-05,1.9928258270227182e-05,1.9928258270227182e-05,0.005133519330410522,0.005149461937026705,0.0051414906337186135,0.00046632124352331106
1421956,-0.08,-0.08,-0.08,0.08,0.12,0.11,208.04,Lift,2509.0,-1.9928258270227182e-05,-1.9928258270227182e-05,-1.9928258270227182e-05,-0.000657632522917497,-0.0006656038262255879,-0.0006855320844958151,0.0005579912315663634
1424465,0.01,0.02,0.01,-9.85,-9.56,-9.26,209.54,Lift,2509.0,3.5870864886408924e-05,3.9856516540454363e-05,3.5870864886408924e-05,-0.003957752092467118,-0.0038581108011159822,-0.0037345555998405736,0.0005978477481068154
1426974,-0.1,-0.08,-0.11,0.65,0.78,0.74,211.09,Lift,2509.0,-4.38421681944998e-05,-3.9856516540454363e-05,-4.7827819848545235e-05,0.004184934236747709,0.004121163810282981,0.0039856516540454365,0.0006177760063770472
1429483,-0.02,-0.01,-0.01,-2.02,-2.02,-2.01,212.76,Lift,2509.0,3.188521323236349e-05,2.7899561578318056e-05,3.9856516540454363e-05,-0.0010641689916301314,-0.0011159824631327222,-0.001096054204862495,0.0006656038262255829
1431992,-0.05,-0.05,-0.05,3.83,3.81,3.9,214.42,Lift,2509.0,-1.195695496213631e-05,-1.5942606616181746e-05,-1.5942606616181746e-05,0.00233160621761658,0.0023236349143084894,0.002355520127540853,0.0006616181745715411
1434501,-0.02,-0.02,-0.02,2.12,2.18,2.21,216.21,Lift,2509.0,1.195695496213631e-05,1.195695496213631e-05,1.195695496213631e-05,-0.0006815464328417696,-0.0006496612196094061,-0.0006735751295336787,0.0007134316460741413
1437010,-0.02,-0.02,-0.01,-1.5,-1.55,-1.53,217.61,Lift,2509.0,0.0,0.0,3.9856516540454365e-06,-0.001442805898764448,-0.0014866480669589479,-0.0014906337186129932,0.0005579912315663634
1439519,0.09,0.09,0.09,0.86,0.8,0.79,218.67,Lift,2509.0,4.38421681944998e-05,4.38421681944998e-05,3.9856516540454363e-05,0.0009406137903547229,0.0009366281387006776,0.0009246711837385414,0.0004224790753288058
1442028,-0.03,-0.03,-0.03,-0.78,-0.73,-0.76,219.44,Lift,2509.0,-4.7827819848545235e-05,-4.7827819848545235e-05,-4.7827819848545235e-05,-0.0006536468712634516,-0.0006098047030689518,-0.0006177760063770427,0.00030689517736150266
1444537,0.01,0.0,0.01,8.49,8.62,8.69,219.93,Lift,2509.0,1.5942606616181746e-05,1.1956954962136309e-05,1.5942606616181746e-05,0.0036946990833001195,0.003726584296532483,0.0037664408130729373,0.00019529693104823002
1447046,0.03,0.04,0.04,-11.6,-11.45,-11.31,220.33,Lift,2509.0,7.971303308090871e-06,1.5942606616181746e-05,1.1956954962136309e-05,-0.008007174172977282,-0.007999202869669191,-0.007971303308090873,0.00015942606616181973
1449555,0.06,0.06,0.06,3.92,3.79,3.7,220.62,Lift,2509.0,1.1956954962136309e-05,7.971303308090871e-06,7.971303308090871e-06,0.006185731367078517,0.006074133120765245,0.005982463132722201,0.00011558389796731449
1452064,0.08,0.08,0.08,7.41,7.27,7.24,220.88,Lift,2509.0,7.971303308090875e-06,7.971303308090875e-06,7.971303308090875e-06,0.0013909924272618574,0.0013870067756078118,0.0014109206855320844,0.00010362694300517772
1454573,0.08,0.08,0.08,-1.24,-1.18,-1.14,220.88,Lift,2509.0,0.0,0.0,0.0,-0.0034475886807493025,-0.0033678756476683935,-0.003339976086090076,0.0
1457082,0.05,0.05,0.05,0.77,0.91,1.11,220.28,Lift,2509.0,-1.1956954962136309e-05,-1.1956954962136309e-05,-1.1956954962136309e-05,0.0008011159824631327,0.0008330011956954961,0.0008967716221602232,-0.00023913909924272393
1459591,-0.02,-0.02,-0.01,-0.11,-0.21,-0.24,219.36,Lift,2509.0,-2.7899561578318056e-05,-2.7899561578318056e-05,-2.391390992427262e-05,-0.0003507373455559984,-0.0004463929852530889,-0.000538062973296134,-0.00036667995217217516
1462100,0.01,0.01,0.01,-4.53,-4.71,-4.76,218.14,Lift,2509.0,1.1956954962136309e-05,1.1956954962136309e-05,7.971303308090873e-06,-0.0017616580310880828,-0.0017935432443204463,-0.001801514547628537,-0.0004862495017935541
1464608,0.05,0.03,0.05,1.88,1.89,1.95,216.8,Lift,2508.0,1.594896331738437e-05,7.974481658692184e-06,1.594896331738437e-05,0.002555821371610845,0.002631578947368421,0.002675438596491228,-0.0005342902711323664
1467117,-0.14,-0.14,-0.14,2.98,3.13,3.21,215.35,Lift,2509.0,-7.57273814268633e-05,-6.775607811877243e-05,-7.57273814268633e-05,0.00043842168194499807,0.0004942208051016341,0.000502192108409725,-0.0005779194898365951
1469626,0.02,0.03,0.03,-4.96,-4.86,-4.82,213.73,Lift,2509.0,6.377042646472698e-05,6.775607811877243e-05,6.775607811877243e-05,-0.0031646074133120762,-0.0031845356715823037,-0.003200478278198486,-0.0006456755679553625
1472135,-0.05,-0.05,-0.05,-4.89,-5.06,-5.24,212.01,Lift,2509.0,-2.7899561578318056e-05,-3.188521323236349e-05,-3.188521323236349e-05,2.7899561578318168e-05,-7.971303308090844e-05,-0.0001673973694699083,-0.0006855320844958146
1474644,0.02,0.02,0.02,-2.58,-2.7,-2.78,210.24,Lift,2509.0,2.7899561578318056e-05,2.7899561578318056e-05,2.7899561578318056e-05,0.0009206855320844957,0.0009406137903547227,0.0009804703068951775,-0.000705460342766035
1477153,0.05,0.04,0.05,-0.29,-0.18,-0.28,208.42,Lift,2509.0,1.195695496213631e-05,7.971303308090873e-06,1.195695496213631e-05,0.000912714228776405,0.00100438421681945,0.0009964129135113591,-0.000725388601036278
1479662,0.03,0.03,0.03,-2.47,-2.57,-2.6,206.96,Lift,2509.0,-7.971303308090875e-06,-3.985651654045437e-06,-7.971303308090875e-06,-0.0008688720605819052,-0.0009525707453168591,-0.0009246711837385414,-0.0005819051414906256
