timestamp,accelX,accelY,accelZ,gyroX,gyroY,gyroZ,altitude,activity,delta_time,accelX_rate_of_change,accelY_rate_of_change,accelZ_rate_of_change,gyroX_rate_of_change,gyroY_rate_of_change,gyroZ_rate_of_change,altitude_rate_of_change
90671,-0.17,-0.18,-0.18,20.7,19.07,17.56,213.86,Stairs,2509.0,-8.369868473495417e-05,-8.76843363889996e-05,-8.76843363889996e-05,0.005559984057393384,0.005049820645675568,0.004587485053806297,-5.181347150258886e-05
93180,-0.15,-0.16,-0.16,-56.27,-56.93,-57.51,213.5,Stairs,2509.0,7.97130330809088e-06,7.97130330809087e-06,7.97130330809087e-06,-0.030677560781187725,-0.03029095257074532,-0.029920286966919087,-0.00014348345954564115
95689,-0.17,-0.17,-0.18,-51.32,-53.05,-54.76,213.06,Stairs,2509.0,-7.97130330809088e-06,-3.98565165404544e-06,-7.97130330809087e-06,0.001972897568752492,0.0015464328417696303,0.001096054204862495,-0.0001753686727779983
98198,-0.08,-0.08,-0.08,-71.0,-70.7,-70.47,212.42,Stairs,2509.0,3.587086488640893e-05,3.587086488640893e-05,3.9856516540454363e-05,-0.00784376245516142,-0.007034675169390198,-0.006261458748505381,-0.00025508170585891385
100707,-0.24,-0.24,-0.24,-51.17,-49.85,-48.61,211.79,Stairs,2509.0,-6.377042646472697e-05,-6.377042646472697e-05,-6.377042646472697e-05,0.007903547229972099,0.008310083698684736,0.008712634515743323,-0.0002510960542048607
103216,-0.08,-0.08,-0.08,43.11,43.89,44.68,211.56,Stairs,2509.0,6.377042646472697e-05,6.377042646472697e-05,6.377042646472697e-05,0.03757672379434038,0.03736149860502192,0.03718214428058987,-9.166998804304096e-05
105725,-0.17,-0.18,-0.18,68.34,68.35,68.27,211.67,Stairs,2509.0,-3.587086488640893e-05,-3.9856516540454363e-05,-3.9856516540454363e-05,0.010055799123156638,0.009748903945795135,0.009402152251893184,4.384216819449391e-05
108234,-0.03,-0.02,-0.02,34.26,33.76,33.46,212.04,Stairs,2509.0,5.579912315663611e-05,6.377042646472698e-05,6.377042646472698e-05,-0.01358310083698685,-0.013786369071343164,-0.013874053407732163,0.00014746911119968296
110743,-0.24,-0.24,-0.24,-80.95,-80.5,-79.98,212.38,Stairs,2509.0,-8.369868473495416e-05,-8.76843363889996e-05,-8.76843363889996e-05,-0.04591869270625747,-0.04554005579912315,-0.04521323236349143,0.0001355121562375462
113252,-0.19,-0.19,-0.19,80.97,80.77,80.49,212.78,Stairs,2509.0,1.992825827022718e-05,1.992825827022718e-05,1.992825827022718e-05,0.06453567158230371,0.06427660422479074,0.06395775209246712,0.00015942606616181973
115761,-0.19,-0.19,-0.2,32.37,33.63,34.88,213.37,Stairs,2509.0,0.0,0.0,-3.98565165404544e-06,-0.01937026703866082,-0.018788361897170185,-0.018178557194101233,0.00023515344758868212
118270,-0.44,-0.44,-0.44,-30.8,-31.2,-31.51,214.04,Stairs,2509.0,-9.964129135113592e-05,-9.964129135113592e-05,-9.565563969709047e-05,-0.025177361498605024,-0.025838979673176565,-0.02646074133120765,0.00026703866082103926
120779,-0.17,-0.17,-0.17,19.56,20.02,20.38,214.39,Stairs,2509.0,0.0001076125946592268,0.0001076125946592268,0.0001076125946592268,0.02007174172977282,0.020414507772020724,0.02068154643284177,0.000139497807891588
123288,-0.15,-0.15,-0.15,-36.1,-35.29,-34.47,214.38,Stairs,2509.0,7.97130330809088e-06,7.97130330809088e-06,7.97130330809088e-06,-0.0221841371064169,-0.02204463929852531,-0.021861299322439215,-3.985651654041811e-06
125797,-0.33,-0.32,-0.32,37.16,37.0,36.76,214.19,Stairs,2509.0,-7.174172977281786e-05,-6.775607811877243e-05,-6.775607811877243e-05,0.029198884017536862,0.028812275807094456,0.02838979673176564,-7.572738142686239e-05
128306,-0.21,-0.21,-0.21,41.0,40.85,40.56,213.82,Stairs,2509.0,4.782781984854525e-05,4.384216819449981e-05,4.384216819449981e-05,0.001530490235153449,0.0015344758868074935,0.0015145476285372676,-0.00014746911119968296
130815,-0.37,-0.36,-0.36,-1.37,-0.79,-0.31,213.22,Stairs,2509.0,-6.377042646472698e-05,-5.9784774810681545e-05,-5.9784774810681545e-05,-0.016887206058190513,-0.016596253487445197,-0.016289358310083702,-0.00023913909924272393
133324,-0.52,-0.53,-0.54,-49.75,-50.93,-51.99,212.66,Stairs,2509.0,-5.978477481068155e-05,-6.775607811877243e-05,-7.174172977281788e-05,-0.019282582702271824,-0.019984057393383818,-0.020597847748106815,-0.00022319649262654535
135833,-0.66,-0.66,-0.66,-70.21,-70.98,-71.78,211.91,Stairs,2509.0,-5.579912315663611e-05,-5.1813471502590674e-05,-4.7827819848545235e-05,-0.008154643284176961,-0.007991231566361102,-0.007887604623355918,-0.0002989238740534077
138341,-0.28,-0.28,-0.28,101.85,102.9,104.02,211.44,Stairs,2508.0,0.00015151515151515152,0.00015151515151515152,0.00015151515151515152,0.06860446570972886,0.06933014354066985,0.07009569377990431,-0.00018740031897926588
140850,-0.28,-0.28,-0.28,75.18,75.15,75.17,211.34,Stairs,2509.0,0.0,0.0,0.0,-0.010629732961339174,-0.011060183339976087,-0.011498605021921082,-3.98565165404521e-05
143359,-0.36,-0.36,-0.36,87.63,87.02,86.31,211.44,Stairs,2509.0,-3.188521323236348e-05,-3.188521323236348e-05,-3.188521323236348e-05,0.004962136309286564,0.004730968513351929,0.004440015942606616,3.98565165404521e-05
145868,-0.56,-0.56,-0.56,-2.79,-3.38,-4.1,211.65,Stairs,2509.0,-7.971303308090875e-05,-7.971303308090875e-05,-7.971303308090875e-05,-0.036038262255878833,-0.036030290952570744,-0.03603427660422479,8.369868473495733e-05
148377,-0.26,-0.26,-0.25,2.98,2.51,2.25,211.98,Stairs,2509.0,0.0001195695496213631,0.0001195695496213631,0.00012355520127540855,0.0022997210043842167,0.002347548824232762,0.002530888800318852,0.00013152650458349307
150886,-0.2,-0.2,-0.2,-14.99,-14.64,-14.29,212.43,Stairs,2509.0,2.3913909924272617e-05,2.3913909924272617e-05,1.992825827022718e-05,-0.007162216022319649,-0.006835392586687923,-0.006592267835791151,0.00017935432443205143
153395,-0.32,-0.32,-0.32,21.58,21.73,21.97,212.94,Stairs,2509.0,-4.7827819848545235e-05,-4.7827819848545235e-05,-4.7827819848545235e-05,0.014575528098844161,0.014495815065763255,0.014451972897568752,0.00020326823435631364
155904,-0.24,-0.23,-0.23,-16.29,-16.0,-15.73,213.54,Stairs,2509.0,3.18852132323635e-05,3.5870864886408924e-05,3.5870864886408924e-05,-0.015093662813870068,-0.015037863690713433,-0.015025906735751297,0.00023913909924272393
158413,-0.62,-0.62,-0.61,-49.0,-48.89,-48.68,213.87,Stairs,2509.0,-0.0001514547628537266,-0.00015544041450777204,-0.0001514547628537266,-0.013037066560382622,-0.013108808290155441,-0.013132722200079714,0.00013152650458350437
160922,-0.34,-0.33,-0.34,-36.69,-36.72,-36.81,213.88,Stairs,2509.0,0.00011159824631327221,0.00011558389796731764,0.00010761259465922677,0.004906337186129933,0.0048505380629732964,0.004730968513351932,3.985651654041811e-06
163431,-0.4,-0.4,-0.4,9.23,8.76,8.42,213.68,Stairs,2509.0,-2.3913909924272617e-05,-2.7899561578318056e-05,-2.3913909924272617e-05,0.018302112395376643,0.018126743722598645,0.01802710243124751,-7.97130330809042e-05
165940,-0.25,-0.25,-0.25,51.68,52.88,53.27,213.3,Stairs,2509.0,5.978477481068155e-05,5.978477481068155e-05,5.978477481068155e-05,0.016919091271422878,0.017584695097648467,0.017875647668393783,-0.00015145476285372477
168449,-0.56,-0.56,-0.56,45.31,45.92,46.77,212.9,Stairs,2509.0,-0.00012355520127540855,-0.00012355520127540855,-0.00012355520127540855,-0.002538860103626942,-0.002774013551215624,-0.0025906735751295338,-0.00015942606616181973
170958,-0.24,-0.24,-0.24,-51.24,-50.89,-50.51,212.4,Stairs,2509.0,0.000127540852929454,0.000127540852929454,0.000127540852929454,-0.03848146671980869,-0.038585093662813874,-0.03877241929055401,-0.00019928258270227183
173467,-0.09,-0.09,-0.09,-7.51,-7.34,-7.11,211.82,Stairs,2509.0,5.9784774810681545e-05,5.9784774810681545e-05,5.9784774810681545e-05,0.017429254683140695,0.017357512953367873,0.017297728178557195,-0.0002311677959346403
175976,-0.05,-0.05,-0.04,11.4,11.09,10.74,211.28,Stairs,2509.0,1.5942606616181743e-05,1.5942606616181743e-05,1.9928258270227182e-05,0.00753686727779992,0.007345555998405739,0.007114388202471104,-0.0002152251893184504
178485,-0.16,-0.16,-0.17,71.18,71.57,71.7,211.08,Stairs,2509.0,-4.38421681944998e-05,-4.38421681944998e-05,-5.1813471502590674e-05,0.023826225587883623,0.024105221203666795,0.02429653248306098,-7.97130330809042e-05
180994,-0.13,-0.13,-0.12,-34.63,-34.91,-35.18,211.09,Stairs,2509.0,1.1956954962136309e-05,1.1956954962136309e-05,1.992825827022719e-05,-0.04217218015145476,-0.0424392188122758,-0.042598644878437626,3.985651654041811e-06
183503,-0.42,-0.42,-0.42,101.11,101.18,101.17,211.33,Stairs,2509.0,-0.00011558389796731764,-0.00011558389796731764,-0.00011956954962136309,0.05410123555201276,0.05424073335990435,0.054344360302909525,9.56556396970941e-05
186012,-0.34,-0.34,-0.34,20.58,20.65,20.73,211.61,Stairs,2509.0,3.188521323236348e-05,3.188521323236348e-05,3.188521323236348e-05,-0.0320964527700279,-0.0320964527700279,-0.03206058190514149,0.00011159824631327267
188521,-0.13,-0.13,-0.13,-58.1,-57.72,-57.32,212.02,Stairs,2509.0,8.369868473495417e-05,8.369868473495417e-05,8.369868473495417e-05,-0.0313591072140295,-0.031235552012754086,-0.03110801115982463,0.00016341171781586154
191030,-0.4,-0.39,-0.39,63.2,63.21,63.21,212.39,Stairs,2509.0,-0.0001076125946592268,-0.00010362694300518135,-0.00010362694300518135,0.04834595456357115,0.048198485452371466,0.04803905938620964,0.00014746911119967163
193539,-0.25,-0.25,-0.25,-93.42,-93.72,-93.97,212.85,Stairs,2509.0,5.978477481068155e-05,5.579912315663611e-05,5.579912315663611e-05,-0.06242327620565963,-0.06254683140693504,-0.06264647269828617,0.00018333997608609325
196048,-0.18,-0.18,-0.18,11.06,11.4,11.78,213.41,Stairs,2509.0,2.7899561578318056e-05,2.7899561578318056e-05,2.7899561578318056e-05,0.04164208848146672,0.04189717018732563,0.04214826624153049,0.00022319649262654535
198557,-0.37,-0.36,-0.36,96.6,94.61,92.87,213.91,Stairs,2509.0,-7.57273814268633e-05,-7.174172977281785e-05,-7.174172977281785e-05,0.03409326424870466,0.03316460741331207,0.032319649262654446,0.00019928258270227183
201066,-0.45,-0.45,-0.45,69.24,67.95,66.81,214.12,Stairs,2509.0,-3.18852132323635e-05,-3.587086488640894e-05,-3.587086488640894e-05,-0.010904742925468313,-0.010625747309685131,-0.010386608210442409,8.369868473495733e-05
203575,-0.03,-0.03,-0.04,-13.66,-14.15,-14.58,214.08,Stairs,2509.0,0.00016739736946990835,0.00016739736946990835,0.0001634117178158629,-0.03304105221203667,-0.032722200079713035,-0.03243921881227581,-1.5942606616178575e-05
206084,-0.13,-0.13,-0.13,-88.85,-88.56,-88.34,213.85,Stairs,2509.0,-3.9856516540454363e-05,-3.9856516540454363e-05,-3.5870864886408924e-05,-0.029968114786767634,-0.02965723395775209,-0.02939816660023914,-9.166998804305229e-05
208593,-0.12,-0.12,-0.12,-7.51,-7.36,-7.25,213.51,Stairs,2509.0,3.98565165404544e-06,3.98565165404544e-06,3.98565165404544e-06,0.032419290554005574,0.03236349143084895,0.032319649262654446,-0.0001355121562375462
211102,-0.16,-0.16,-0.16,-41.7,-42.44,-42.97,213.05,Stairs,2509.0,-1.594260661618175e-05,-1.594260661618175e-05,-1.594260661618175e-05,-0.01362694300518135,-0.013981666002391391,-0.014236747708250298,-0.00018333997608608192
213611,-0.11,-0.1,-0.1,-4.27,-3.78,-3.28,212.45,Stairs,2509.0,1.9928258270227182e-05,2.3913909924272617e-05,2.3913909924272617e-05,0.01491829414109207,0.015408529294539655,0.015819051414906336,-0.00023913909924273526
216120,-0.09,-0.1,-0.1,-39.08,-39.04,-39.03,211.8,Stairs,2509.0,7.971303308090875e-06,0.0,0.0,-0.013874053407732165,-0.014053407732164208,-0.014248704663212436,-0.0002590673575129443
218629,-0.01,-0.01,-0.01,3.82,3.78,3.88,211.19,Stairs,2509.0,3.188521323236349e-05,3.587086488640893e-05,3.587086488640893e-05,0.01709844559585492,0.01706656038262256,0.01710243124750897,-0.00024312475089677705
221138,-0.25,-0.25,-0.25,-137.24,-137.36,-137.55,210.84,Stairs,2509.0,-9.565563969709047e-05,-9.565563969709047e-05,-9.565563969709047e-05,-0.05622160223196493,-0.056253487445197294,-0.05636907134316461,-0.000139497807891588
223647,0.12,0.12,0.12,-22.42,-22.58,-22.66,210.81,Stairs,2509.0,0.00014746911119968114,0.00014746911119968114,0.00014746911119968114,0.045763252291749705,0.045747309685133526,0.04579115185332803,-1.1956954962136763e-05
226156,0.22,0.22,0.21,69.53,69.73,70.01,210.9,Stairs,2509.0,3.9856516540454363e-05,3.9856516540454363e-05,3.5870864886408924e-05,0.03664806695894779,0.03679155041849343,0.03693503387803906,3.5870864886410286e-05
228665,-0.02,-0.02,-0.02,-24.76,-25.08,-25.44,211.15,Stairs,2509.0,-9.565563969709047e-05,-9.565563969709047e-05,-9.166998804304504e-05,-0.037580709445994426,-0.037787963332004786,-0.03804304503786369,9.964129135113592e-05
231174,0.0,-0.0,-0.0,-2.26,-1.85,-1.4,211.52,Stairs,2509.0,7.971303308090873e-06,7.971303308090873e-06,7.971303308090873e-06,0.008967716221602232,0.009258668792347548,0.00958150657632523,0.00014746911119968296
233683,-0.03,-0.03,-0.03,-1.71,-2.04,-2.27,212.1,Stairs,2509.0,-1.1956954962136309e-05,-1.1956954962136309e-05,-1.1956954962136309e-05,0.00021921084097249892,-7.572738142686327e-05,-0.000346751693901953,0.00023116779593462897
236192,-0.02,-0.02,-0.02,-40.64,-41.02,-41.15,212.55,Stairs,2509.0,3.985651654045436e-06,3.985651654045436e-06,3.985651654045436e-06,-0.015516141889198884,-0.015536070147469112,-0.015496213630928655,0.00017935432443205143
238701,-0.1,-0.1,-0.1,-12.3,-12.7,-13.15,213.18,Stairs,2509.0,-3.188521323236349e-05,-3.188521323236349e-05,-3.188521323236349e-05,0.011295336787564766,0.011287365484256677,0.011159824631327222,0.0002510960542048607
243719,0.06,0.06,0.06,1.89,2.37,2.92,213.83,Stairs,5018.0,3.188521323236349e-05,3.188521323236349e-05,3.188521323236349e-05,0.002827819848545237,0.0030031885213232363,0.0032024711040255084,0.00012953367875647782
246228,-0.0,-0.0,-0.0,-75.98,-75.65,-75.35,213.9,Stairs,2509.0,-2.3913909924272617e-05,-2.3913909924272617e-05,-2.3913909924272617e-05,-0.031036269430051815,-0.0310960542048625,-0.031195695496213628,2.7899561578315336e-05
248737,-0.08,-0.07,-0.07,26.4,26.53,26.67,213.7,Stairs,2509.0,-3.188521323236349e-05,-2.7899561578318056e-05,-2.7899561578318056e-05,0.04080510163411718,0.04072538860103627,0.04066161817457154,-7.971303308091553e-05
251246,0.4,0.41,0.41,-33.7,-34.31,-34.92,213.34,Stairs,2509.0,0.00019131127939418097,0.00019131127939418094,0.00019131127939418094,-0.023953766440813075,-0.024248704663212436,-0.024547628537265845,-0.00014348345954562982
253755,-0.02,-0.02,-0.02,-24.26,-24.56,-24.89,212.71,Stairs,2509.0,-0.00016739736946990835,-0.00017138302112395376,-0.00017138302112395376,0.0037624551614188926,0.0038860103626943017,0.003997608609007573,-0.0002510960542048607
256264,-0.17,-0.18,-0.18,72.27,71.15,70.12,212.0,Stairs,2509.0,-5.978477481068155e-05,-6.377042646472698e-05,-6.377042646472698e-05,0.0384734954165006,0.03814667198086887,0.037867676365085694,-0.0002829812674372292
258773,-0.12,-0.13,-0.12,-45.87,-45.63,-45.41,211.33,Stairs,2509.0,1.992825827022719e-05,1.992825827022718e-05,2.3913909924272617e-05,-0.04708648864089278,-0.04654444001594261,-0.046046233559186925,-0.00026703866082103926
261282,0.02,0.02,0.02,4.33,4.21,4.05,210.89,Stairs,2509.0,5.5799123156636106e-05,5.9784774810681545e-05,5.5799123156636106e-05,0.02000797130330809,0.019864487843762456,0.019713033080908725,-0.00017536867277800962
263791,-0.12,-0.12,-0.12,-14.76,-14.63,-14.53,210.79,Stairs,2509.0,-5.5799123156636106e-05,-5.5799123156636106e-05,-5.5799123156636106e-05,-0.007608609007572738,-0.007508967716221602,-0.00740534077321642,-3.98565165404521e-05
266300,-0.13,-0.12,-0.13,19.67,19.37,19.02,210.89,Stairs,2509.0,-3.98565165404544e-06,0.0,-3.98565165404544e-06,0.013722598644878438,0.013551215623754484,0.013371861299322439,3.98565165404521e-05
268809,0.0,0.0,0.01,15.44,15.27,15.17,211.15,Stairs,2509.0,5.1813471502590674e-05,4.7827819848545235e-05,5.579912315663611e-05,-0.0016859306496612204,-0.0016341171781586296,-0.0015344758868074929,0.00010362694300518905
271318,-0.11,-0.11,-0.11,-51.95,-51.61,-51.31,211.46,Stairs,2509.0,-4.38421681944998e-05,-4.38421681944998e-05,-4.7827819848545235e-05,-0.026859306496612195,-0.026656038262255877,-0.026496612196094064,0.00012355520127540944
273827,-0.2,-0.2,-0.2,48.25,48.63,49.08,211.83,Stairs,2509.0,-3.587086488640893e-05,-3.587086488640893e-05,-3.587086488640893e-05,0.03993622957353527,0.03995217218015146,0.04001195695496214,0.00014746911119968296
276336,-0.07,-0.06,-0.06,-65.86,-65.75,-65.6,212.26,Stairs,2509.0,5.1813471502590674e-05,5.579912315663611e-05,5.579912315663611e-05,-0.04548027102431248,-0.0455878836189717,-0.045707453168593065,0.00017138302112394514
278845,-0.07,-0.07,-0.07,32.53,32.13,31.72,212.77,Stairs,2509.0,0.0,-3.98565165404544e-06,-3.98565165404544e-06,0.03921482662415305,0.03901155838979673,0.038788361897170186,0.00020326823435632495
281354,0.02,0.02,0.02,-9.69,-9.52,-9.37,213.36,Stairs,2509.0,3.587086488640893e-05,3.587086488640893e-05,3.587086488640893e-05,-0.016827421283379832,-0.016600239139099245,-0.016377042646472696,0.00023515344758868212
283863,-0.12,-0.12,-0.12,-42.33,-42.38,-42.41,213.71,Stairs,2509.0,-5.5799123156636106e-05,-5.5799123156636106e-05,-5.5799123156636106e-05,-0.013009166998804304,-0.013096851335193303,-0.013168593064966122,0.000139497807891588
286372,-0.17,-0.17,-0.17,-40.92,-41.18,-41.64,213.75,Stairs,2509.0,-1.992825827022719e-05,-1.992825827022719e-05,-1.992825827022719e-05,0.0005619768832204052,0.0004782781984854535,0.000306895177361497,1.5942606616178575e-05
288880,-0.28,-0.28,-0.28,-55.51,-55.87,-56.15,213.54,Stairs,2508.0,-4.385964912280702e-05,-4.385964912280702e-05,-4.385964912280702e-05,-0.005817384370015948,-0.005857256778309409,-0.005785486443381179,-8.373205741627111e-05
291389,-0.08,-0.08,-0.08,-7.37,-7.61,-7.73,213.19,Stairs,2509.0,7.971303308090873e-05,7.971303308090873e-05,7.971303308090873e-05,0.01918692706257473,0.019234754882423277,0.019298525308888002,-0.000139497807891588
293898,-0.12,-0.13,-0.13,-38.77,-38.85,-38.82,212.66,Stairs,2509.0,-1.5942606616181743e-05,-1.9928258270227182e-05,-1.9928258270227182e-05,-0.012514946193702671,-0.012451175767237943,-0.012391390992427262,-0.00021123953766440858
296407,-0.26,-0.27,-0.27,157.56,158.58,159.56,212.05,Stairs,2509.0,-5.579912315663611e-05,-5.579912315663611e-05,-5.579912315663611e-05,0.07825029892387406,0.07868872060581905,0.07906735751295337,-0.00024312475089676574
298916,-0.31,-0.31,-0.3,102.52,102.4,102.27,211.38,Stairs,2509.0,-1.992825827022718e-05,-1.594260661618174e-05,-1.1956954962136299e-05,-0.021937026703866085,-0.022391390992427266,-0.02283379832602631,-0.0002670386608210506
301425,-0.31,-0.3,-0.3,-70.11,-70.57,-71.01,210.74,Stairs,2509.0,0.0,3.98565165404544e-06,0.0,-0.06880430450378637,-0.06893981666002391,-0.06906337186129932,-0.0002550817058589025
303934,-0.08,-0.08,-0.08,-28.16,-28.15,-28.18,210.52,Stairs,2509.0,9.166998804304504e-05,8.768433638899959e-05,8.768433638899959e-05,0.016719808688720608,0.01690713431646074,0.017070546034276605,-8.768433638899914e-05
306443,-0.12,-0.13,-0.12,35.28,35.05,34.94,210.54,Stairs,2509.0,-1.5942606616181743e-05,-1.9928258270227182e-05,-1.5942606616181743e-05,0.02528497409326425,0.025189318453567158,0.025157433240334794,7.971303308083622e-06
308952,-0.09,-0.08,-0.08,-19.94,-19.41,-19.06,210.74,Stairs,2509.0,1.1956954962136309e-05,1.9928258270227182e-05,1.5942606616181743e-05,-0.0220087684336389,-0.021705858907931443,-0.021522518931845355,7.971303308091553e-05
311461,-0.13,-0.12,-0.12,74.11,73.82,73.66,211.05,Stairs,2509.0,-1.594260661618175e-05,-1.5942606616181743e-05,-1.5942606616181743e-05,0.03748505380629733,0.0371582303706656,0.036954962136309284,0.00012355520127540944
313970,-0.12,-0.13,-0.12,-74.95,-74.85,-74.79,211.3,Stairs,2509.0,3.98565165404544e-06,-3.98565165404544e-06,0.0,-0.059410123555201276,-0.0592546831406935,-0.059166998804304496,9.964129135113592e-05
316479,-0.17,-0.17,-0.16,50.95,51.19,51.34,211.82,Stairs,2509.0,-1.992825827022719e-05,-1.594260661618175e-05,-1.594260661618175e-05,0.050179354324432046,0.05023515344758868,0.05027102431247509,0.00020725388601035543
318988,0.01,0.01,0.0,-36.65,-36.95,-37.15,212.24,Stairs,2509.0,7.174172977281786e-05,7.174172977281786e-05,6.377042646472698e-05,-0.03491430848943802,-0.03512953367875648,-0.03526903148664807,0.00016739736946991466
321497,-0.11,-0.11,-0.11,57.43,58.11,58.53,212.73,Stairs,2509.0,-4.7827819848545235e-05,-4.7827819848545235e-05,-4.38421681944998e-05,0.03749701076125946,0.03788760462335592,0.03813471502590674,0.0001952969310482187
324006,-0.18,-0.18,-0.18,55.75,55.94,56.13,213.28,Stairs,2509.0,-2.7899561578318053e-05,-2.7899561578318053e-05,-2.7899561578318053e-05,-0.0006695894778796332,-0.0008648864089278604,-0.0009565563969709042,0.00021921084097250353
326515,-0.11,-0.1,-0.1,-3.52,-3.72,-3.94,213.53,Stairs,2509.0,2.7899561578318053e-05,3.1885213232363485e-05,3.1885213232363485e-05,-0.023622957353527305,-0.023778397768035073,-0.023941809485850937,9.964129135113592e-05
329024,-0.13,-0.12,-0.12,-72.17,-71.96,-71.73,213.57,Stairs,2509.0,-7.971303308090875e-06,-7.97130330809087e-06,-7.97130330809087e-06,-0.027361498605021923,-0.027198086887206055,-0.027018732562774015,1.5942606616178575e-05
331533,-0.16,-0.16,-0.16,-32.28,-31.91,-31.53,213.43,Stairs,2509.0,-1.1956954962136309e-05,-1.594260661618175e-05,-1.594260661618175e-05,0.015898764447987247,0.015962534874451973,0.016022319649262654,-5.579912315663067e-05
334042,-0.19,-0.2,-0.2,44.37,44.14,43.92,213.11,Stairs,2509.0,-1.1956954962136309e-05,-1.594260661618175e-05,-1.594260661618175e-05,0.030550019928258274,0.030310880829015542,0.030071741729772818,-0.00012754085292945126
336551,-0.14,-0.14,-0.14,-40.81,-40.22,-39.54,212.68,Stairs,2509.0,1.992825827022718e-05,2.3913909924272617e-05,2.3913909924272617e-05,-0.03394978078915903,-0.0336229573535273,-0.03326424870466321,-0.00017138302112395647
339060,-0.03,-0.03,-0.03,-20.69,-20.84,-21.02,212.14,Stairs,2509.0,4.384216819449981e-05,4.384216819449981e-05,4.384216819449981e-05,0.008019131127939418,0.007724192905540056,0.007381426863292148,-0.00021522518931846172
341569,-0.22,-0.22,-0.22,-65.29,-65.6,-65.84,211.6,Stairs,2509.0,-7.57273814268633e-05,-7.57273814268633e-05,-7.57273814268633e-05,-0.01777600637704265,-0.01783977680350737,-0.01786369071343165,-0.0002152251893184504
344078,-0.16,-0.15,-0.15,90.62,89.87,89.21,211.0,Stairs,2509.0,2.3913909924272617e-05,2.7899561578318056e-05,2.7899561578318056e-05,0.06214029493822241,0.0619649262654444,0.06179752889597449,-0.00023913909924272393
346587,-0.09,-0.09,-0.09,-27.41,-27.7,-27.89,210.67,Stairs,2509.0,2.7899561578318056e-05,2.3913909924272617e-05,2.3913909924272617e-05,-0.047042646472698284,-0.0468593064966122,-0.04667198086887206,-0.00013152650458350437
349096,-0.08,-0.08,-0.08,83.81,83.64,83.44,210.67,Stairs,2509.0,3.985651654045435e-06,3.985651654045435e-06,3.985651654045435e-06,0.044328417696293344,0.04437624551614189,0.04437225986448784,0.0
351605,-0.09,-0.09,-0.09,-69.19,-69.12,-69.21,210.74,Stairs,2509.0,-3.985651654045435e-06,-3.985651654045435e-06,-3.985651654045435e-06,-0.06098047030689518,-0.060884814667198084,-0.060840972499003575,2.7899561578326666e-05
354114,-0.08,-0.08,-0.08,87.4,88.4,89.31,210.95,Stairs,2509.0,3.985651654045435e-06,3.985651654045435e-06,3.985651654045435e-06,0.06241131925069749,0.06278198485452371,0.06318055001992826,8.369868473494601e-05
356623,-0.04,-0.04,-0.04,0.05,-0.25,-0.35,211.27,Stairs,2509.0,1.5942606616181746e-05,1.5942606616181746e-05,1.5942606616181746e-05,-0.03481466719808689,-0.0353328019131128,-0.03573535273017138,0.0001275408529294626
359132,0.01,0.01,0.01,-20.5,-20.41,-20.4,211.71,Stairs,2509.0,1.9928258270227182e-05,1.9928258270227182e-05,1.9928258270227182e-05,-0.008190514149063372,-0.0080350737345556,-0.007991231566361098,0.0001753686727779983
361641,-0.24,-0.24,-0.24,94.1,94.32,94.57,212.19,Stairs,2509.0,-9.964129135113592e-05,-9.964129135113592e-05,-9.964129135113592e-05,0.0456755679553607,0.045727381426863285,0.04582303706656038,0.00019131127939417687
364150,-0.14,-0.14,-0.14,-13.4,-14.21,-14.96,212.65,Stairs,2509.0,3.985651654045436e-05,3.985651654045436e-05,3.985651654045436e-05,-0.04284575528098844,-0.043256277401355125,-0.043654842566759666,0.00018333997608609325
366659,-0.18,-0.17,-0.17,-67.62,-67.22,-66.85,213.19,Stairs,2509.0,-1.594260661618174e-05,-1.1956954962136309e-05,-1.1956954962136309e-05,-0.02161020326823436,-0.02112793941809486,-0.020681546432841768,0.0002152251893184504
369168,-0.18,-0.18,-0.18,10.84,11.24,11.53,213.45,Stairs,2509.0,0.0,-3.985651654045429e-06,-3.985651654045429e-06,0.031271422877640495,0.031271422877640495,0.03123953766440813,0.00010362694300517772
371677,0.17,0.18,0.18,-45.79,-46.53,-47.17,213.45,Stairs,2509.0,0.00013949780789159028,0.0001434834595456357,0.0001434834595456357,-0.022570745316859306,-0.023025109605420487,-0.023395775209246714,0.0
374186,0.04,0.05,0.04,19.98,19.98,19.91,213.36,Stairs,2509.0,-5.1813471502590674e-05,-5.1813471502590674e-05,-5.5799123156636106e-05,0.026213630928656834,0.0265085691510562,0.02673575129533679,-3.5870864886398957e-05
376695,0.06,0.06,0.05,-7.31,-7.29,-7.11,213.07,Stairs,2509.0,7.971303308090871e-06,3.985651654045435e-06,3.985651654045437e-06,-0.010876843363889995,-0.010868872060581906,-0.010769230769230769,-0.00011558389796732582
379204,0.08,0.07,0.06,-23.11,-23.28,-23.61,212.62,Stairs,2509.0,7.971303308090875e-06,3.98565165404544e-06,3.985651654045435e-06,-0.0062973296133917896,-0.006373056994818654,-0.00657632522917497,-0.0001793543244320401
381713,-0.08,-0.09,-0.09,28.29,28.17,28.01,212.12,Stairs,2509.0,-6.377042646472698e-05,-6.377042646472698e-05,-5.9784774810681545e-05,0.020486249501793542,0.020506177760063773,0.020573933838182543,-0.00019928258270227183
384222,0.16,0.17,0.17,-26.57,-25.02,-23.46,211.69,Stairs,2509.0,9.565563969709047e-05,0.00010362694300518135,0.00010362694300518135,-0.021865284974093263,-0.021199681147867674,-0.020514149063371862,-0.00017138302112395647
386731,0.11,0.11,0.11,21.43,21.24,21.04,211.11,Stairs,2509.0,-1.9928258270227182e-05,-2.3913909924272624e-05,-2.3913909924272624e-05,0.019131127939418093,0.018437624551614188,0.017736149860502193,-0.00023116779593462897
389240,-0.2,-0.2,-0.2,-6.6,-5.86,-5.22,210.74,Stairs,2509.0,-0.00012355520127540852,-0.00012355520127540852,-0.00012355520127540852,-0.01117178158628936,-0.010801115982463132,-0.010466321243523315,-0.00014746911119968296
391749,-0.01,-0.01,-0.01,54.27,54.24,54.2,210.74,Stairs,2509.0,7.57273814268633e-05,7.57273814268633e-05,7.57273814268633e-05,0.024260661618174573,0.023953766440813075,0.023682742128337982,0.0
394258,-0.27,-0.27,-0.27,54.26,54.5,54.96,210.83,Stairs,2509.0,-0.00010362694300518135,-0.00010362694300518135,-0.00010362694300518135,-3.985651654047475e-06,0.00010362694300518055,0.00030290952570745237,3.5870864886410286e-05
396767,-0.06,-0.06,-0.06,-27.68,-27.09,-26.37,211.11,Stairs,2509.0,8.369868473495417e-05,8.369868473495417e-05,8.369868473495417e-05,-0.032658429653248305,-0.032518931845356716,-0.03241530490235153,0.00011159824631327267
399276,-0.13,-0.13,-0.13,64.53,64.7,64.87,211.42,Stairs,2509.0,-2.7899561578318056e-05,-2.7899561578318056e-05,-2.7899561578318056e-05,0.03675169390195297,0.03658429653248307,0.03636508569151056,0.00012355520127539811
401785,-0.04,-0.04,-0.04,-5.91,-5.24,-4.58,211.75,Stairs,2509.0,3.5870864886408924e-05,3.5870864886408924e-05,3.5870864886408924e-05,-0.02807493025109605,-0.02787564766839378,-0.027680350737345556,0.00013152650458350437
404294,-0.12,-0.12,-0.11,66.17,64.83,63.66,212.17,Stairs,2509.0,-3.1885213232363485e-05,-3.1885213232363485e-05,-2.7899561578318056e-05,0.028728577122359506,0.02792746113989637,0.027198086887206055,0.00016739736946990336
406803,-0.21,-0.21,-0.21,-61.35,-61.26,-61.21,212.56,Stairs,2509.0,-3.5870864886408924e-05,-3.5870864886408924e-05,-3.9856516540454363e-05,-0.05082502989238741,-0.050255081705858906,-0.04976883220406537,0.00015544041450777792
409312,-0.24,-0.24,-0.24,20.37,20.31,20.21,213.08,Stairs,2509.0,-1.1956954962136309e-05,-1.1956954962136309e-05,-1.1956954962136309e-05,0.03257074531685931,0.03251096054204862,0.032451175767237946,0.00020725388601036676
411821,-0.22,-0.22,-0.22,9.93,9.33,8.71,213.46,Stairs,2509.0,7.97130330809087e-06,7.97130330809087e-06,7.97130330809087e-06,-0.004161020326823436,-0.004376245516141889,-0.004583499402152252,0.00015145476285372477
414330,-0.31,-0.3,-0.29,80.27,80.08,79.98,213.92,Stairs,2509.0,-3.5870864886408924e-05,-3.1885213232363485e-05,-2.7899561578318046e-05,0.0280350737345556,0.028198485452371462,0.02840573933838183,0.00018333997608608192
416839,-0.07,-0.07,-0.07,-34.46,-34.21,-33.94,214.48,Stairs,2509.0,9.565563969709047e-05,9.166998804304504e-05,8.768433638899959e-05,-0.045727381426863285,-0.04555201275408529,-0.04540454364288561,0.00022319649262654535
419348,-0.14,-0.14,-0.14,17.99,17.7,17.41,215.09,Stairs,2509.0,-2.7899561578318056e-05,-2.7899561578318056e-05,-2.7899561578318056e-05,0.020904742925468314,0.02068951773614986,0.020466321243523315,0.00024312475089677705
421857,-0.09,-0.08,-0.08,-2.63,-2.57,-2.49,215.68,Stairs,2509.0,1.992825827022719e-05,2.3913909924272624e-05,2.3913909924272624e-05,-0.008218413710641689,-0.0080789159027501,-0.007931446791550417,0.00023515344758868212
424366,-0.25,-0.26,-0.27,45.43,45.2,44.84,215.88,Stairs,2509.0,-6.377042646472698e-05,-7.174172977281785e-05,-7.57273814268633e-05,0.01915504184934237,0.01903945795137505,0.018864089278597052,7.97130330809042e-05
426875,-0.11,-0.11,-0.11,-16.42,-16.82,-17.21,215.9,Stairs,2509.0,5.579912315663611e-05,5.978477481068155e-05,6.3770426464727e-05,-0.024651255480271025,-0.0247190115583898,-0.024730968513351936,7.97130330809495e-06
429384,-0.05,-0.05,-0.05,-86.47,-86.76,-87.12,215.8,Stairs,2509.0,2.3913909924272617e-05,2.3913909924272617e-05,2.3913909924272617e-05,-0.02791948983658828,-0.02787564766839378,-0.027863690713431644,-3.98565165404521e-05
431893,-0.16,-0.16,-0.16,-7.58,-7.28,-7.11,215.53,Stairs,2509.0,-4.38421681944998e-05,-4.38421681944998e-05,-4.38421681944998e-05,0.03144280589876445,0.03167795934635313,0.03188919888401754,-0.00010761259465923086
434402,-0.06,-0.06,-0.06,-40.86,-40.67,-40.26,215.29,Stairs,2509.0,3.9856516540454363e-05,3.9856516540454363e-05,3.9856516540454363e-05,-0.013264248704663213,-0.013308090872857713,-0.01321243523316062,-9.56556396970941e-05
436911,-0.13,-0.14,-0.14,-7.15,-6.93,-6.62,214.94,Stairs,2509.0,-2.7899561578318056e-05,-3.18852132323635e-05,-3.18852132323635e-05,0.013435631725787166,0.013447588680749304,0.013407732164208848,-0.000139497807891588
439419,-0.12,-0.12,-0.12,-11.91,-12.1,-12.28,214.38,Stairs,2508.0,3.987240829346096e-06,7.974481658692193e-06,7.974481658692193e-06,-0.00189792663476874,-0.00206140350877193,-0.002256778309409888,-0.0002232854864433821
441928,-0.08,-0.08,-0.08,-39.48,-39.32,-39.15,213.87,Stairs,2509.0,1.5942606616181743e-05,1.5942606616181743e-05,1.5942606616181743e-05,-0.010988441610203266,-0.010848943802311677,-0.010709445994420086,-0.00020326823435631364
444437,-0.22,-0.22,-0.22,-35.79,-35.47,-35.27,213.23,Stairs,2509.0,-5.579912315663611e-05,-5.579912315663611e-05,-5.579912315663611e-05,0.001470705460342765,0.0015344758868074935,0.0015464328417696275,-0.00025508170585891385
446946,-0.17,-0.17,-0.17,46.4,46.08,45.76,212.79,Stairs,2509.0,1.992825827022718e-05,1.992825827022718e-05,1.992825827022718e-05,0.03275807094459944,0.03250298923874053,0.03229573535273017,-0.0001753686727779983
449455,-0.17,-0.17,-0.17,18.24,18.4,18.4,212.7,Stairs,2509.0,0.0,0.0,0.0,-0.01122359505779195,-0.011032283778397768,-0.010904742925468313,-3.5870864886410286e-05
451964,-0.16,-0.16,-0.16,5.92,6.05,6.27,212.77,Stairs,2509.0,3.98565165404544e-06,3.98565165404544e-06,3.98565165404544e-06,-0.004910322837783977,-0.0049222797927461134,-0.004834595456357114,2.7899561578326666e-05
454473,-0.11,-0.11,-0.11,44.21,44.27,44.36,213.02,Stairs,2509.0,1.9928258270227182e-05,1.9928258270227182e-05,1.9928258270227182e-05,0.015261060183339975,0.01523316062176166,0.015181347150259069,9.964129135113592e-05
456982,-0.09,-0.09,-0.08,26.21,26.18,26.11,213.29,Stairs,2509.0,7.971303308090875e-06,7.971303308090875e-06,1.1956954962136309e-05,-0.007174172977281785,-0.007210043842168196,-0.0072738142686329214,0.00010761259465921953
459491,-0.07,-0.07,-0.07,-48.42,-48.24,-48.08,213.58,Stairs,2509.0,7.97130330809087e-06,7.97130330809087e-06,3.985651654045435e-06,-0.02974491829414109,-0.02966121960940614,-0.029569549621363093,0.00011558389796732582
462000,-0.2,-0.2,-0.2,-61.98,-61.65,-61.51,213.92,Stairs,2509.0,-5.1813471502590674e-05,-5.1813471502590674e-05,-5.1813471502590674e-05,-0.00540454364288561,-0.005344758868074929,-0.005352730171383021,0.00013551215623753486
464509,-0.07,-0.07,-0.07,-60.76,-60.71,-60.79,214.33,Stairs,2509.0,5.1813471502590674e-05,5.1813471502590674e-05,5.1813471502590674e-05,0.00048624950179354277,0.0003746512554802701,0.00028696691909127096,0.00016341171781587287
467018,-0.19,-0.19,-0.19,72.98,72.92,72.93,214.78,Stairs,2509.0,-4.7827819848545235e-05,-4.7827819848545235e-05,-4.7827819848545235e-05,0.05330410522120367,0.05326026305300917,0.053296133917895575,0.0001793543244320401
469527,-0.15,-0.15,-0.15,26.47,26.95,27.31,215.31,Stairs,2509.0,1.594260661618175e-05,1.594260661618175e-05,1.594260661618175e-05,-0.018537265842965327,-0.01832204065364687,-0.01818254284575528,0.00021123953766440858
472036,-0.17,-0.17,-0.16,37.87,37.68,37.48,215.54,Stairs,2509.0,-7.97130330809088e-06,-7.97130330809088e-06,-3.98565165404544e-06,0.004543642885611797,0.0042766042247907535,0.004053407732164208,9.166998804304096e-05
474545,-0.13,-0.13,-0.13,27.34,27.07,26.7,215.54,Stairs,2509.0,1.594260661618175e-05,1.594260661618175e-05,1.1956954962136309e-05,-0.004196891191709844,-0.004228776404942207,-0.00429653248306098,0.0
477054,-0.03,-0.03,-0.03,-10.34,-10.62,-10.84,215.4,Stairs,2509.0,3.9856516540454363e-05,3.9856516540454363e-05,3.9856516540454363e-05,-0.015017935432443204,-0.015021921084097249,-0.014962136309286568,-5.579912315663067e-05
479563,-0.26,-0.27,-0.26,-4.6,-4.85,-5.11,215.1,Stairs,2509.0,-9.166998804304504e-05,-9.565563969709048e-05,-9.166998804304504e-05,0.0022877640494220804,0.0022997210043842167,0.002283778397768035,-0.00011956954962136763
482072,-0.04,-0.04,-0.04,7.95,8.83,9.83,214.84,Stairs,2509.0,8.76843363889996e-05,9.166998804304504e-05,8.76843363889996e-05,0.005001992825827023,0.005452371462734157,0.005954563571143883,-0.00010362694300517772
484581,-0.06,-0.06,-0.06,-31.38,-31.39,-31.44,214.47,Stairs,2509.0,-7.971303308090871e-06,-7.971303308090871e-06,-7.971303308090871e-06,-0.0156755679553607,-0.016030290952570744,-0.01644878437624552,-0.00014746911119968296
487090,-0.17,-0.18,-0.18,22.67,23.5,24.49,214.05,Stairs,2509.0,-4.384216819449981e-05,-4.7827819848545235e-05,-4.7827819848545235e-05,0.021542447190115582,0.0218772419290554,0.022291749701076127,-0.00016739736946990336
489599,-0.03,-0.03,-0.03,-81.05,-81.05,-81.03,213.52,Stairs,2509.0,5.579912315663611e-05,5.9784774810681545e-05,5.9784774810681545e-05,-0.04133917895575927,-0.04166998804304504,-0.04205659625348744,-0.00021123953766440858
492108,-0.28,-0.29,-0.29,68.63,68.77,68.93,212.99,Stairs,2509.0,-9.964129135113592e-05,-0.00010362694300518135,-0.00010362694300518135,0.0596572339577521,0.05971303308090872,0.05976883220406537,-0.00021123953766440858
494617,-0.2,-0.19,-0.19,51.33,51.38,51.05,212.75,Stairs,2509.0,3.18852132323635e-05,3.985651654045436e-05,3.985651654045436e-05,-0.006895177361498604,-0.006931048226385011,-0.0071263451574332445,-9.56556396970941e-05
497126,-0.21,-0.22,-0.21,-49.06,-49.11,-49.14,212.75,Stairs,2509.0,-3.985651654045429e-06,-1.1956954962136309e-05,-7.97130330809087e-06,-0.04001195695496214,-0.04005181347150259,-0.03993224392188122,0.0
499635,-0.19,-0.19,-0.19,75.1,74.96,74.79,212.9,Stairs,2509.0,7.97130330809087e-06,1.1956954962136309e-05,7.97130330809087e-06,0.049485850936628134,0.04944998007174173,0.049394180948585095,5.9784774810683815e-05
502144,-0.13,-0.13,-0.13,18.64,19.17,19.65,213.15,Stairs,2509.0,2.3913909924272617e-05,2.3913909924272617e-05,2.3913909924272617e-05,-0.022502989238740532,-0.022235950577919487,-0.02197688322040654,9.964129135113592e-05
504653,-0.16,-0.15,-0.16,-74.31,-74.56,-74.8,213.5,Stairs,2509.0,-1.1956954962136309e-05,-7.97130330809087e-06,-1.1956954962136309e-05,-0.03704663212435233,-0.03735751295336788,-0.03764447987245914,0.000139497807891588
507162,-0.16,-0.16,-0.16,53.37,53.79,53.85,213.89,Stairs,2509.0,0.0,-3.98565165404544e-06,0.0,0.05088880031885214,0.05115583897967317,0.05127540852929454,0.0001554404145077666
509671,-0.18,-0.18,-0.18,5.57,5.38,5.27,214.37,Stairs,2509.0,-7.97130330809087e-06,-7.97130330809087e-06,-7.97130330809087e-06,-0.019051414906337185,-0.019294539657233958,-0.019362295735352728,0.0001913112793941882
512180,-0.02,-0.02,-0.02,2.29,2.55,2.95,214.89,Stairs,2509.0,6.377042646472698e-05,6.377042646472698e-05,6.377042646472698e-05,-0.0013072937425269032,-0.0011279394180948585,-0.000924671183738541,0.00020725388601035543
514689,0.04,0.05,0.05,-71.87,-71.33,-70.9,215.5,Stairs,2509.0,2.3913909924272617e-05,2.7899561578318056e-05,2.7899561578318056e-05,-0.02955759266640096,-0.029445994420087683,-0.029434037465125552,0.00024312475089677705
517198,0.1,0.1,0.1,-25.09,-24.89,-24.73,215.77,Stairs,2509.0,2.391390992427262e-05,1.9928258270227182e-05,1.9928258270227182e-05,0.01864487843762455,0.018509366281387007,0.018401753686727782,0.00010761259465923086
519707,0.07,0.07,0.07,-1.27,-1.82,-2.28,215.8,Stairs,2509.0,-1.1956954962136309e-05,-1.1956954962136309e-05,-1.1956954962136309e-05,0.00949382223993623,0.009194898365882822,0.008947787963332005,1.1956954962136763e-05
522216,0.1,0.11,0.1,31.12,31.13,31.11,215.63,Stairs,2509.0,1.1956954962136309e-05,1.5942606616181743e-05,1.1956954962136309e-05,0.012909525707453169,0.013132722200079711,0.013308090872857713,-6.775607811877876e-05
524725,-0.1,-0.1,-0.11,2.29,2.16,1.85,215.22,Stairs,2509.0,-7.971303308090873e-05,-8.369868473495417e-05,-8.369868473495417e-05,-0.011490633718612994,-0.011546432841769629,-0.011662016739736946,-0.00016341171781586154
527234,-0.14,-0.13,-0.13,40.51,40.18,39.75,214.87,Stairs,2509.0,-1.594260661618175e-05,-1.1956954962136309e-05,-7.971303308090875e-06,0.015233160621761657,0.015153447588680747,0.015105619768832203,-0.000139497807891588
529743,-0.05,-0.04,-0.04,-47.95,-48.08,-48.18,214.41,Stairs,2509.0,3.587086488640893e-05,3.5870864886408924e-05,3.5870864886408924e-05,-0.03525707453168593,-0.035177361498605016,-0.03504583499402152,-0.00018333997608609325
532252,-0.05,-0.05,-0.05,-21.09,-21.63,-22.24,213.99,Stairs,2509.0,0.0,-3.985651654045437e-06,-3.985651654045437e-06,0.010705460342766043,0.010542048624950178,0.010338780390593863,-0.00016739736946990336
534761,0.02,0.03,0.03,-6.73,-6.53,-6.34,213.55,Stairs,2509.0,2.7899561578318056e-05,3.188521323236349e-05,3.188521323236349e-05,0.005723395775209247,0.006018333997608608,0.006337186129932244,-0.0001753686727779983
537270,0.01,0.01,0.01,-14.02,-13.52,-13.04,213.12,Stairs,2509.0,-3.9856516540454365e-06,-7.971303308090871e-06,-7.971303308090871e-06,-0.002905540055799123,-0.00278597050617776,-0.002670386608210442,-0.00017138302112395647
539779,-0.17,-0.17,-0.17,59.65,59.84,60.05,212.76,Stairs,2509.0,-7.174172977281786e-05,-7.174172977281786e-05,-7.174172977281786e-05,0.02936229573535273,0.02923874053407732,0.029131127939418095,-0.00014348345954564115
542288,-0.15,-0.15,-0.16,7.17,7.15,7.17,212.6,Stairs,2509.0,7.97130330809088e-06,7.97130330809088e-06,3.98565165404544e-06,-0.020916699880430448,-0.021000398565165408,-0.021076125946592267,-6.377042646472563e-05
544797,-0.09,-0.09,-0.09,-50.61,-50.24,-49.87,212.61,Stairs,2509.0,2.3913909924272617e-05,2.3913909924272617e-05,2.7899561578318056e-05,-0.02302909525707453,-0.02287365484256676,-0.02273415703467517,3.9856516540531394e-06
547306,-0.09,-0.09,-0.09,-17.18,-17.21,-17.3,212.8,Stairs,2509.0,0.0,0.0,0.0,0.013324033479473894,0.013164607413312077,0.012981267437225984,7.572738142686239e-05
552324,-0.09,-0.09,-0.09,-16.48,-15.54,-14.68,213.45,Stairs,5018.0,0.0,0.0,0.0,0.00013949780789159014,0.0003328019131127943,0.0005221203666799524,0.00012953367875647215
554833,-0.11,-0.12,-0.12,34.96,35.01,35.02,213.87,Stairs,2509.0,-7.971303308090875e-06,-1.1956954962136309e-05,-1.1956954962136309e-05,0.020502192108409725,0.02014746911119968,0.01980868872060582,0.00016739736946991466
557342,-0.12,-0.12,-0.12,-1.77,-1.85,-1.98,214.26,Stairs,2509.0,-3.985651654045435e-06,0.0,0.0,-0.01463929852530889,-0.014691111996811479,-0.014746911119968115,0.0001554404145077666
559851,-0.1,-0.1,-0.1,-38.21,-37.82,-37.29,214.77,Stairs,2509.0,7.97130330809087e-06,7.97130330809087e-06,7.97130330809087e-06,-0.01452371462734157,-0.014336388999601435,-0.014073335990434437,0.00020326823435632495
562360,-0.17,-0.17,-0.17,20.23,20.79,21.29,215.3,Stairs,2509.0,-2.7899561578318056e-05,-2.7899561578318056e-05,-2.7899561578318056e-05,0.02329214826624153,0.0233599043443603,0.023347947389398167,0.00021123953766440858
567378,-0.16,-0.16,-0.16,-59.19,-59.63,-60.08,215.32,Stairs,5018.0,1.99282582702272e-06,1.99282582702272e-06,1.99282582702272e-06,-0.01582702271821443,-0.0160263053009167,-0.01621562375448386,3.985651654041811e-06
569887,-0.28,-0.27,-0.27,5.44,5.88,6.26,215.0,Stairs,2509.0,-4.782781984854525e-05,-4.384216819449981e-05,-4.384216819449981e-05,0.025759266640095653,0.026110003985651657,0.026440813072937427,-0.00012754085292945126
572396,-0.09,-0.08,-0.08,-36.7,-36.53,-36.43,214.69,Stairs,2509.0,7.572738142686331e-05,7.57273814268633e-05,7.57273814268633e-05,-0.01679553607014747,-0.0169031486648067,-0.01701474691111997,-0.00012355520127540944
574905,-0.28,-0.27,-0.27,-15.23,-14.36,-13.59,214.33,Stairs,2509.0,-7.572738142686331e-05,-7.57273814268633e-05,-7.57273814268633e-05,0.008557194101235554,0.008836189717018734,0.009103228377839776,-0.00014348345954562982
577414,-0.12,-0.12,-0.12,9.5,9.64,9.74,213.82,Stairs,2509.0,6.3770426464727e-05,5.978477481068155e-05,5.978477481068155e-05,0.009856516540454364,0.009565563969709047,0.009298525308888002,-0.00020326823435632495
582432,-0.26,-0.26,-0.26,-17.89,-17.88,-17.9,212.68,Stairs,5018.0,-2.7899561578318056e-05,-2.7899561578318056e-05,-2.7899561578318056e-05,-0.0054583499402152255,-0.0054842566759665205,-0.005508170585890793,-0.00022718214428058716
584941,-0.13,-0.13,-0.13,41.98,42.46,42.96,212.37,Stairs,2509.0,5.1813471502590674e-05,5.1813471502590674e-05,5.1813471502590674e-05,0.023862096452770026,0.024049422080510165,0.024256675966520525,-0.00012355520127540944
587450,-0.12,-0.12,-0.12,96.68,96.5,96.37,212.34,Stairs,2509.0,3.98565165404544e-06,3.98565165404544e-06,3.98565165404544e-06,0.02180151454762854,0.021538461538461538,0.02128736548425668,-1.1956954962136763e-05
589958,-0.19,-0.19,-0.19,-13.37,-13.39,-13.4,212.44,Stairs,2508.0,-2.791068580542265e-05,-2.791068580542265e-05,-2.791068580542265e-05,-0.043879585326953754,-0.04381578947368421,-0.04376794258373206,3.987240829345866e-05
592467,-0.16,-0.16,-0.16,-40.4,-40.27,-40.13,212.69,Stairs,2509.0,1.1956954962136309e-05,1.1956954962136309e-05,1.1956954962136309e-05,-0.010773216420884815,-0.010713431646074134,-0.010653646871263453,9.964129135113592e-05
597485,-0.23,-0.23,-0.23,17.08,17.1,17.08,213.35,Stairs,5018.0,-1.3949780789159028e-05,-1.3949780789159028e-05,-1.3949780789159028e-05,0.011454762853726584,0.011432841769629335,0.01140095655639697,0.0001315265045834987
599994,-0.18,-0.18,-0.19,-6.66,-6.54,-6.45,213.77,Stairs,2509.0,1.992825827022719e-05,1.992825827022719e-05,1.594260661618175e-05,-0.009461937026703865,-0.009422080510163413,-0.00937823834196891,0.00016739736946991466
602503,-0.22,-0.21,-0.21,-1.29,-1.36,-1.45,214.16,Stairs,2509.0,-1.594260661618175e-05,-1.1956954962136309e-05,-7.97130330809087e-06,0.0021402949382223996,0.002064567556795536,0.0019928258270227183,0.0001554404145077666
605012,-0.03,-0.03,-0.03,-79.72,-79.38,-79.06,214.69,Stairs,2509.0,7.57273814268633e-05,7.174172977281785e-05,7.174172977281785e-05,-0.03125946592267836,-0.031096054204862493,-0.030932642487046632,0.00021123953766440858
607521,-0.4,-0.4,-0.39,28.62,28.31,28.06,215.02,Stairs,2509.0,-0.00014746911119968114,-0.00014746911119968114,-0.0001434834595456357,0.04318055001992826,0.04292148266241531,0.04269430051813472,0.00013152650458350437
612539,0.04,0.04,0.04,-44.65,-44.31,-43.93,215.06,Stairs,5018.0,8.76843363889996e-05,8.76843363889996e-05,8.569151056197688e-05,-0.014601434834595455,-0.014471901155838981,-0.014346353128736547,7.971303308089287e-06
615048,0.04,0.04,0.03,31.06,30.95,30.88,214.84,Stairs,2509.0,0.0,0.0,-3.985651654045437e-06,0.030175368672777998,0.029996014348345958,0.02981666002391391,-8.768433638899914e-05
617557,0.07,0.07,0.07,-11.11,-11.65,-12.08,214.55,Stairs,2509.0,1.1956954962136312e-05,1.1956954962136312e-05,1.594260661618175e-05,-0.016807493025109605,-0.01697887604623356,-0.017122359505779196,-0.00011558389796731449
620066,0.15,0.15,0.15,69.95,69.68,69.46,214.21,Stairs,2509.0,3.1885213232363485e-05,3.1885213232363485e-05,3.1885213232363485e-05,0.03230769230769231,0.03241530490235154,0.03249900358708648,-0.0001355121562375462
622575,-0.03,-0.03,-0.03,-20.97,-20.98,-20.95,213.76,Stairs,2509.0,-7.174172977281785e-05,-7.174172977281785e-05,-7.174172977281785e-05,-0.03623754483858111,-0.036133917895575934,-0.03603427660422479,-0.00017935432443205143
627593,0.12,0.12,0.12,12.86,13.32,13.69,212.62,Stairs,5018.0,2.9892387405340773e-05,2.9892387405340773e-05,2.9892387405340773e-05,0.006741729772817855,0.006835392586687923,0.006903148664806696,-0.00022718214428058716
630102,0.22,0.22,0.22,75.81,75.98,76.13,212.18,Stairs,2509.0,3.9856516540454363e-05,3.9856516540454363e-05,3.9856516540454363e-05,0.025089677162216023,0.024974093264248706,0.024886408927859704,-0.0001753686727779983
632611,-0.01,-0.01,-0.01,-15.02,-15.01,-15.08,212.09,Stairs,2509.0,-9.166998804304504e-05,-9.166998804304504e-05,-9.166998804304504e-05,-0.0362016739736947,-0.03626544440015943,-0.036353128736548425,-3.5870864886410286e-05
635120,0.04,0.04,0.05,10.31,10.5,10.63,212.2,Stairs,2509.0,1.9928258270227182e-05,1.9928258270227182e-05,2.391390992427262e-05,0.010095655639697089,0.010167397369469908,0.010247110402550818,4.384216819449391e-05
637629,0.05,0.05,0.05,-6.0,-6.7,-7.31,212.51,Stairs,2509.0,3.985651654045437e-06,3.985651654045437e-06,0.0,-0.006500597847748108,-0.00685532084495815,-0.007150259067357514,0.00012355520127540944
640138,0.08,0.08,0.08,-5.6,-5.05,-4.53,212.83,Stairs,2509.0,1.1956954962136309e-05,1.1956954962136309e-05,1.1956954962136309e-05,0.0001594260661618176,0.0006576325229174972,0.001108011159824631,0.0001275408529294626
642647,-0.08,-0.09,-0.08,-7.85,-7.64,-7.36,213.25,Stairs,2509.0,-6.377042646472698e-05,-6.775607811877242e-05,-6.377042646472698e-05,-0.0008967716221602232,-0.001032283778397768,-0.0011279394180948585,0.00016739736946990336
645156,-0.09,-0.09,-0.09,42.1,41.87,41.6,213.77,Stairs,2509.0,-3.985651654045435e-06,0.0,-3.985651654045435e-06,0.019908330011956955,0.019732961339178956,0.01951375049820646,0.00020725388601036676
647665,-0.13,-0.13,-0.12,-42.74,-42.76,-42.82,214.21,Stairs,2509.0,-1.594260661618175e-05,-1.594260661618175e-05,-1.1956954962136309e-05,-0.03381426863292148,-0.033730569948186524,-0.033646871263451575,0.0001753686727779983
650174,-0.18,-0.18,-0.18,28.16,27.66,27.28,214.85,Stairs,2509.0,-1.992825827022718e-05,-1.992825827022718e-05,-2.3913909924272617e-05,0.028258270227182147,0.028066958947787966,0.027939418094858507,0.0002550817058589025
652683,-0.13,-0.13,-0.13,-95.51,-95.43,-95.25,215.05,Stairs,2509.0,1.992825827022718e-05,1.992825827022718e-05,1.992825827022718e-05,-0.04929055400557991,-0.04905938620964528,-0.04883618971701873,7.971303308091553e-05
655192,-0.08,-0.09,-0.09,-46.61,-46.88,-47.11,215.01,Stairs,2509.0,1.9928258270227182e-05,1.594260661618175e-05,1.594260661618175e-05,0.019489836588282187,0.019350338780390594,0.01918692706257473,-1.59426066161899e-05
657701,-0.11,-0.11,-0.11,27.05,26.42,25.88,214.86,Stairs,2509.0,-1.1956954962136309e-05,-7.971303308090875e-06,-7.971303308090875e-06,0.029358310083698682,0.029214826624153055,0.029091271422877638,-5.9784774810672485e-05
660210,-0.24,-0.24,-0.24,-87.85,-87.81,-87.82,214.49,Stairs,2509.0,-5.1813471502590674e-05,-5.1813471502590674e-05,-5.1813471502590674e-05,-0.04579513750498206,-0.04552809884416102,-0.04531685930649661,-0.00014746911119968296
662719,-0.11,-0.1,-0.11,4.15,4.02,3.82,214.23,Stairs,2509.0,5.1813471502590674e-05,5.5799123156636106e-05,5.1813471502590674e-05,0.036667995217218016,0.03660023913909924,0.03652451175767237,-0.00010362694300518905
665228,-0.1,-0.1,-0.1,1.98,1.63,1.23,213.73,Stairs,2509.0,3.985651654045435e-06,0.0,3.985651654045435e-06,-0.0008648864089278598,-0.0009525707453168591,-0.001032283778397768,-0.00019928258270227183
667737,-0.11,-0.12,-0.11,3.42,3.01,2.52,213.22,Stairs,2509.0,-3.985651654045435e-06,-7.97130330809087e-06,-3.985651654045435e-06,0.0005739338381825428,0.0005500199282582702,0.0005141490633718613,-0.00020326823435631364
670246,-0.09,-0.09,-0.08,-50.56,-50.6,-50.59,212.62,Stairs,2509.0,7.971303308090875e-06,1.1956954962136309e-05,1.1956954962136309e-05,-0.021514547628537266,-0.021367078517337584,-0.021167795934635317,-0.00023913909924272393
672755,-0.36,-0.36,-0.36,16.27,16.08,15.88,212.3,Stairs,2509.0,-0.0001076125946592268,-0.0001076125946592268,-0.00011159824631327221,0.02663611000398565,0.026576325229174972,0.026492626544440016,-0.00012754085292945126
675264,-0.08,-0.08,-0.07,60.98,60.8,60.68,212.27,Stairs,2509.0,0.00011159824631327221,0.00011159824631327221,0.00011558389796731764,0.017819848545237143,0.01782383419689119,0.017855719410123556,-1.1956954962136763e-05
677773,-0.15,-0.15,-0.15,-45.08,-45.04,-44.9,212.35,Stairs,2509.0,-2.7899561578318053e-05,-2.7899561578318053e-05,-3.1885213232363485e-05,-0.0422718214428059,-0.0421841371064169,-0.042080510163411716,3.188521323235715e-05
680282,-0.16,-0.16,-0.16,9.24,9.52,9.93,212.66,Stairs,2509.0,-3.98565165404544e-06,-3.98565165404544e-06,-3.98565165404544e-06,0.02165005978477481,0.0217457154244719,0.02185332801913113,0.00012355520127540944
682791,-0.15,-0.15,-0.15,6.75,6.98,7.34,212.96,Stairs,2509.0,3.98565165404544e-06,3.98565165404544e-06,3.98565165404544e-06,-0.0009924272618573138,-0.0010123555201275406,-0.001032283778397768,0.00011956954962136763
685300,-0.04,-0.04,-0.04,-25.65,-25.47,-25.36,213.36,Stairs,2509.0,4.3842168194499796e-05,4.3842168194499796e-05,4.3842168194499796e-05,-0.012913511359107213,-0.012933439617377442,-0.013033080908728577,0.00015942606616181973
687809,-0.26,-0.26,-0.26,45.52,45.95,46.49,213.82,Stairs,2509.0,-8.76843363889996e-05,-8.76843363889996e-05,-8.76843363889996e-05,0.02836588282184137,0.028465524113192506,0.028636907134316457,0.00018333997608608192
690318,-0.15,-0.14,-0.15,15.47,15.27,15.15,214.35,Stairs,2509.0,4.384216819449981e-05,4.7827819848545235e-05,4.384216819449981e-05,-0.011976883220406537,-0.0122279792746114,-0.0124910322837784,0.00021123953766440858
692827,-0.32,-0.32,-0.33,-1.98,-1.95,-1.97,214.82,Stairs,2509.0,-6.775607811877243e-05,-7.174172977281785e-05,-7.174172977281786e-05,-0.006954962136309286,-0.006863292148266241,-0.006823435631725787,0.00018732562774013506
695336,-0.02,-0.02,-0.02,-50.52,-51.21,-51.82,214.95,Stairs,2509.0,0.00011956954962136309,0.00011956954962136309,0.00012355520127540852,-0.01934635312873655,-0.019633320047827817,-0.0198684734954165,5.181347150258886e-05
697845,-0.36,-0.36,-0.36,84.48,84.83,85.05,214.9,Stairs,2509.0,-0.00013551215623754483,-0.00013551215623754483,-0.00013551215623754483,0.053806297329613395,0.054220805101634115,0.05455161418891989,-1.9928258270220385e-05
700354,-0.19,-0.2,-0.2,-20.24,-20.18,-20.13,214.71,Stairs,2509.0,6.775607811877242e-05,6.377042646472697e-05,6.377042646472697e-05,-0.04173774412116381,-0.04185332801913112,-0.0419210840972499,-7.572738142686239e-05
702863,-0.23,-0.23,-0.23,-57.45,-56.95,-56.58,214.37,Stairs,2509.0,-1.594260661618175e-05,-1.1956954962136309e-05,-1.1956954962136309e-05,-0.014830609804703071,-0.014655241131925071,-0.014527700278995618,-0.0001355121562375462
705372,-0.11,-0.12,-0.11,-76.79,-77.05,-77.24,213.97,Stairs,2509.0,4.782781984854524e-05,4.384216819449981e-05,4.782781984854524e-05,-0.007708250298923875,-0.008011159824631325,-0.008234356317257871,-0.00015942606616181973
707881,-0.13,-0.13,-0.13,-21.74,-21.52,-21.37,213.48,Stairs,2509.0,-7.971303308090875e-06,-3.98565165404544e-06,-7.971303308090875e-06,0.021941012355520133,0.022132323634914308,0.02226783579115185,-0.00019529693104823002
710390,-0.08,-0.08,-0.08,10.67,10.34,10.12,213.09,Stairs,2509.0,1.9928258270227182e-05,1.9928258270227182e-05,1.9928258270227182e-05,0.012917497010761258,0.01269828616978876,0.01255081705858908,-0.0001554404145077666
712899,-0.18,-0.18,-0.18,-1.84,-1.73,-1.7,212.59,Stairs,2509.0,-3.9856516540454363e-05,-3.9856516540454363e-05,-3.9856516540454363e-05,-0.004986050219210841,-0.0048106815464328415,-0.004711040255081705,-0.00019928258270227183
715408,-0.14,-0.14,-0.14,24.44,24.48,24.59,212.13,Stairs,2509.0,1.594260661618174e-05,1.594260661618174e-05,1.594260661618174e-05,0.010474292546831408,0.01044639298525309,0.010478278198485453,-0.00018333997608609325
717917,-0.0,-0.01,-0.01,-7.64,-7.11,-6.56,211.77,Stairs,2509.0,5.579912315663611e-05,5.1813471502590674e-05,5.1813471502590674e-05,-0.01278597050617776,-0.012590673575129534,-0.012415304902351534,-0.00014348345954562982
720425,-0.07,-0.08,-0.08,3.85,3.98,4.14,211.55,Stairs,2508.0,-2.791068580542265e-05,-2.791068580542265e-05,-2.791068580542265e-05,0.00458133971291866,0.004421850079744816,0.004266347687400318,-8.771929824561358e-05
722934,-0.09,-0.09,-0.09,-8.81,-8.3,-7.77,211.6,Stairs,2509.0,-7.97130330809087e-06,-3.985651654045435e-06,-3.985651654045435e-06,-0.005045834994021523,-0.004894380231167796,-0.004746911119968115,1.9928258270220385e-05
725443,-0.18,-0.18,-0.18,36.21,35.85,35.47,211.73,Stairs,2509.0,-3.5870864886408924e-05,-3.5870864886408924e-05,-3.5870864886408924e-05,0.017943403746512557,0.017596652052610604,0.017233957752092466,5.181347150258886e-05
727952,-0.24,-0.23,-0.24,-26.11,-26.11,-26.06,211.99,Stairs,2509.0,-2.3913909924272617e-05,-1.992825827022719e-05,-2.3913909924272617e-05,-0.02483858110801116,-0.024695097648465524,-0.02452371462734157,0.00010362694300518905
730461,-0.25,-0.25,-0.25,-58.44,-58.46,-58.27,212.37,Stairs,2509.0,-3.98565165404544e-06,-7.97130330809087e-06,-3.98565165404544e-06,-0.012885611797528895,-0.012893583100836988,-0.012837783977680354,0.00015145476285372477
732970,-0.23,-0.23,-0.23,73.62,73.34,72.92,212.78,Stairs,2509.0,7.97130330809087e-06,7.97130330809087e-06,7.97130330809087e-06,0.052634515743324034,0.05253088880031886,0.05228776404942208,0.00016341171781586154
735479,-0.24,-0.24,-0.24,-20.23,-20.98,-21.73,213.14,Stairs,2509.0,-3.985651654045429e-06,-3.985651654045429e-06,-3.985651654045429e-06,-0.037405340773216424,-0.037592666400956556,-0.037724192905540056,0.00014348345954562982
737987,-0.29,-0.29,-0.29,-6.02,-6.9,-7.73,213.62,Stairs,2508.0,-1.993620414673046e-05,-1.993620414673046e-05,-1.993620414673046e-05,0.005665869218500798,0.005614035087719299,0.005582137161084529,0.00019138755980861968
740495,-0.25,-0.25,-0.26,32.63,32.76,32.94,214.13,Stairs,2508.0,1.594896331738436e-05,1.594896331738436e-05,1.1961722488038266e-05,0.015410685805422649,0.015813397129186602,0.01621610845295056,0.0002033492822966471
743004,-0.14,-0.14,-0.14,-3.43,-3.58,-3.55,214.75,Stairs,2509.0,4.3842168194499796e-05,4.3842168194499796e-05,4.7827819848545235e-05,-0.014372259864487844,-0.014483858110801115,-0.014543642885611795,0.0002471104025508189
745513,-0.05,-0.05,-0.06,46.4,46.61,46.69,215.12,Stairs,2509.0,3.587086488640893e-05,3.587086488640893e-05,3.18852132323635e-05,0.019860502192108408,0.020003985651654045,0.020023913909924272,0.00014746911119968296
748022,-0.13,-0.13,-0.13,-68.29,-68.68,-68.95,215.16,Stairs,2509.0,-3.188521323236349e-05,-3.188521323236349e-05,-2.7899561578318056e-05,-0.045711438820247106,-0.04595057791948984,-0.04609007572738143,1.5942606616178575e-05
750531,-0.16,-0.15,-0.15,-38.37,-38.69,-38.98,214.98,Stairs,2509.0,-1.1956954962136309e-05,-7.97130330809087e-06,-7.97130330809087e-06,0.01192506974890395,0.011952969310482267,0.011944998007174175,-7.174172977282057e-05
753040,-0.22,-0.23,-0.23,-12.17,-11.26,-10.04,214.62,Stairs,2509.0,-2.3913909924272617e-05,-3.18852132323635e-05,-3.18852132323635e-05,0.010442407333599042,0.010932642487046632,0.011534475886807493,-0.00014348345954562982
755549,-0.35,-0.35,-0.35,-18.17,-18.95,-19.7,214.24,Stairs,2509.0,-5.181347150259067e-05,-4.782781984854522e-05,-4.782781984854522e-05,-0.0023913909924272625,-0.0030649661219609406,-0.0038501394978078915,-0.00015145476285372477
758058,-0.14,-0.14,-0.15,-51.66,-52.39,-53.21,213.72,Stairs,2509.0,8.369868473495415e-05,8.369868473495415e-05,7.971303308090873e-05,-0.013347947389398165,-0.013328019131127938,-0.01335591869270626,-0.00020725388601036676
760567,-0.29,-0.28,-0.28,37.34,36.95,36.47,213.23,Stairs,2509.0,-5.978477481068153e-05,-5.579912315663611e-05,-5.181347150259069e-05,0.03547229972100439,0.03560781187724193,0.035743324033479476,-0.00019529693104823002
763076,-0.11,-0.11,-0.11,-69.92,-69.99,-70.02,212.61,Stairs,2509.0,7.174172977281785e-05,6.775607811877243e-05,6.775607811877243e-05,-0.04275009964129135,-0.042622558788361894,-0.04244320446392985,-0.00024711040255080756
765585,-0.38,-0.38,-0.38,65.44,65.6,65.76,212.19,Stairs,2509.0,-0.0001076125946592268,-0.0001076125946592268,-0.0001076125946592268,0.05394978078915903,0.054041450777202064,0.05411717815862894,-0.00016739736946991466
768093,-0.28,-0.28,-0.28,31.27,31.02,30.79,212.08,Stairs,2508.0,3.987240829346092e-05,3.987240829346092e-05,3.987240829346092e-05,-0.013624401913875598,-0.013787878787878786,-0.013943381180223287,-4.3859649122801126e-05
770602,-0.11,-0.11,-0.11,-55.8,-55.6,-55.31,212.18,Stairs,2509.0,6.775607811877243e-05,6.775607811877243e-05,6.775607811877243e-05,-0.034703068951773615,-0.03452371462734157,-0.034316460741331205,3.98565165404521e-05
773111,-0.23,-0.23,-0.24,36.53,36.76,36.9,212.58,Stairs,2509.0,-4.782781984854524e-05,-4.782781984854524e-05,-5.1813471502590674e-05,0.036799521721801516,0.036811478676763654,0.03675169390195297,0.00015942606616181973
775620,-0.27,-0.26,-0.26,-41.6,-41.53,-41.58,212.74,Stairs,2509.0,-1.594260661618175e-05,-1.1956954962136309e-05,-7.97130330809088e-06,-0.031139896373056992,-0.031203666799521718,-0.03127939418094858,6.377042646472563e-05
778129,-0.28,-0.28,-0.28,71.33,71.54,71.69,213.01,Stairs,2509.0,-3.98565165404544e-06,-7.97130330809088e-06,-7.97130330809088e-06,0.04500996412913512,0.04506576325229175,0.04514547628537266,0.00010761259465921953
780638,-0.17,-0.17,-0.17,46.0,45.96,45.94,213.35,Stairs,2509.0,4.384216819449981e-05,4.384216819449981e-05,4.384216819449981e-05,-0.010095655639697089,-0.01019529693104823,-0.010263053009166998,0.0001355121562375462
783146,-0.12,-0.12,-0.12,-53.38,-53.02,-52.61,213.76,Stairs,2508.0,1.993620414673047e-05,1.993620414673047e-05,1.993620414673047e-05,-0.039625199362041466,-0.03946570972886763,-0.03929425837320574,0.00016347687400318844
785655,-0.2,-0.2,-0.2,109.65,109.66,109.72,214.37,Stairs,2509.0,-3.18852132323635e-05,-3.18852132323635e-05,-3.18852132323635e-05,0.06497807891590275,0.06483858110801116,0.06469908330011956,0.00024312475089677705
788164,0.08,0.08,0.07,-36.78,-37.29,-37.82,214.83,Stairs,2509.0,0.00011159824631327223,0.00011159824631327223,0.0001076125946592268,-0.058361897170187325,-0.058569151056197685,-0.05880430450378637,0.00018333997608609325
790673,0.08,0.08,0.08,6.53,5.81,5.3,214.97,Stairs,2509.0,0.0,0.0,3.985651654045435e-06,0.017261857313670786,0.017178158628935833,0.017186129932243922,5.579912315663067e-05
793182,0.16,0.16,0.16,-78.37,-77.9,-77.56,214.91,Stairs,2509.0,3.188521323236349e-05,3.188521323236349e-05,3.188521323236349e-05,-0.033838182542845756,-0.03336388999601435,-0.03302510960542049,-2.3913909924273525e-05
795691,0.17,0.17,0.16,-30.31,-30.77,-31.23,214.58,Stairs,2509.0,3.98565165404544e-06,3.98565165404544e-06,0.0,0.01915504184934237,0.018784376245516144,0.018465524113192508,-0.00013152650458349307
798200,0.06,0.06,0.06,16.28,16.44,16.5,214.26,Stairs,2509.0,-4.384216819449981e-05,-4.384216819449981e-05,-3.9856516540454363e-05,0.01856915105619769,0.018816261458748505,0.01902351534475887,-0.0001275408529294626
800709,0.11,0.1,0.1,-43.9,-43.98,-43.95,213.89,Stairs,2509.0,1.9928258270227182e-05,1.594260661618175e-05,1.594260661618175e-05,-0.023985651654045436,-0.024081307293742527,-0.024093264248704664,-0.00014746911119968296
803218,-0.07,-0.07,-0.07,-7.4,-7.63,-7.85,213.45,Stairs,2509.0,-7.174172977281785e-05,-6.775607811877243e-05,-6.775607811877243e-05,0.014547628537265843,0.014487843762455158,0.014388202471104027,-0.0001753686727779983
805727,0.08,0.08,0.08,-62.98,-62.66,-62.35,212.99,Stairs,2509.0,5.978477481068155e-05,5.978477481068155e-05,5.978477481068155e-05,-0.022152251893184535,-0.021933041052212034,-0.02172180151454763,-0.00018333997608608192
808236,-0.2,-0.2,-0.21,17.91,18.69,19.33,212.43,Stairs,2509.0,-0.00011159824631327223,-0.00011159824631327223,-0.00011558389796731764,0.03223993622957354,0.03242327620565962,0.03255480271024313,-0.00022319649262654535
810745,0.02,0.02,0.02,4.11,3.77,3.36,212.05,Stairs,2509.0,8.76843363889996e-05,8.76843363889996e-05,9.166998804304504e-05,-0.005500199282582703,-0.005946592267835791,-0.006365085691510562,-0.00015145476285372477
813253,-0.25,-0.26,-0.26,-39.82,-39.92,-40.02,211.99,Stairs,2508.0,-0.00010765550239234451,-0.0001116427432216906,-0.0001116427432216906,-0.017515948963317384,-0.01742025518341308,-0.017296650717703352,-2.392344497607746e-05
815762,-0.14,-0.14,-0.14,36.79,36.13,35.53,212.03,Stairs,2509.0,4.3842168194499796e-05,4.7827819848545235e-05,4.7827819848545235e-05,0.030534077321642088,0.03031088082901555,0.030111598246313275,1.5942606616178575e-05
818271,-0.42,-0.42,-0.41,-70.93,-70.79,-70.53,212.29,Stairs,2509.0,-0.00011159824631327221,-0.00011159824631327221,-0.00010761259465922677,-0.04293343961737744,-0.04261458748505381,-0.0422718214428059,0.00010362694300517772
820780,-0.31,-0.31,-0.31,54.31,54.66,55.19,212.6,Stairs,2509.0,4.3842168194499796e-05,4.3842168194499796e-05,3.985651654045436e-05,0.049916301315265046,0.05,0.05010761259465923,0.00012355520127540944
823289,-0.29,-0.3,-0.29,28.5,28.92,29.24,213.02,Stairs,2509.0,7.97130330809088e-06,3.98565165404544e-06,7.97130330809088e-06,-0.010286966919091272,-0.010259067357512952,-0.010342766042247908,0.00016739736946991466
825798,-0.14,-0.14,-0.14,-71.49,-71.72,-72.03,213.51,Stairs,2509.0,5.978477481068153e-05,6.377042646472697e-05,5.978477481068153e-05,-0.039852530888800315,-0.040111598246313274,-0.040362694300518136,0.0001952969310482187
828306,-0.29,-0.29,-0.28,26.49,26.49,26.38,214.04,Stairs,2508.0,-5.9808612440191376e-05,-5.9808612440191376e-05,-5.58213716108453e-05,0.03906698564593301,0.03915869218500797,0.03923843700159489,0.00021132376395534334
830815,-0.3,-0.29,-0.29,63.78,64.41,64.85,214.61,Stairs,2509.0,-3.98565165404544e-06,0.0,-3.985651654045418e-06,0.014862495017935434,0.015113591072140296,0.015332801913112794,0.0002271821442805985
833324,-0.13,-0.13,-0.13,-84.3,-83.33,-82.24,214.83,Stairs,2509.0,6.775607811877242e-05,6.377042646472697e-05,6.377042646472697e-05,-0.05901952969310482,-0.058884017536867284,-0.05862495017935431,8.768433638899914e-05
835833,-0.22,-0.22,-0.22,-77.76,-77.53,-77.27,214.78,Stairs,2509.0,-3.5870864886408924e-05,-3.5870864886408924e-05,-3.5870864886408924e-05,0.002606616181745712,0.002311677959346352,0.0019808688720605815,-1.992825827023171e-05
838342,-0.41,-0.42,-0.43,89.61,89.17,88.56,214.58,Stairs,2509.0,-7.572738142686328e-05,-7.971303308090873e-05,-8.369868473495416e-05,0.06670785173375847,0.06644081307293742,0.06609406137903547,-7.97130330809042e-05
840851,-0.12,-0.11,-0.11,-57.42,-57.05,-56.8,214.29,Stairs,2509.0,0.00011558389796731764,0.00012355520127540852,0.00012754085292945397,-0.05860103626943005,-0.05827819848545237,-0.05793543244320447,-0.00011558389796732582
843359,-0.25,-0.24,-0.25,-70.5,-71.82,-73.08,213.94,Stairs,2508.0,-5.18341307814992e-05,-5.18341307814992e-05,-5.58213716108453e-05,-0.0052153110047846885,-0.005889154704944177,-0.006491228070175439,-0.00013955342902711098
845868,-0.14,-0.14,-0.13,39.91,40.41,40.89,213.43,Stairs,2509.0,4.3842168194499796e-05,3.985651654045436e-05,4.7827819848545235e-05,0.044005579912315664,0.044730968513351926,0.04542447190115584,-0.00020326823435631364
848377,-0.22,-0.22,-0.22,-58.24,-57.74,-57.37,212.94,Stairs,2509.0,-3.1885213232363485e-05,-3.1885213232363485e-05,-3.5870864886408924e-05,-0.03911917098445596,-0.03911917098445596,-0.03916301315265045,-0.00019529693104823002
850886,-0.15,-0.15,-0.15,122.49,122.58,122.73,212.35,Stairs,2509.0,2.7899561578318056e-05,2.7899561578318056e-05,2.7899561578318056e-05,0.07203268234356316,0.0718692706257473,0.07178158628935831,-0.00023515344758868212
853395,-0.28,-0.28,-0.28,-22.73,-22.8,-22.98,211.93,Stairs,2509.0,-5.181347150259069e-05,-5.181347150259069e-05,-5.181347150259069e-05,-0.05787963332004783,-0.05794340374651255,-0.05807493025109606,-0.00016739736946990336
855904,-0.18,-0.17,-0.17,-41.9,-41.8,-41.67,211.82,Stairs,2509.0,3.985651654045438e-05,4.384216819449981e-05,4.384216819449981e-05,-0.007640494220805101,-0.007572738142686328,-0.007449182941410921,-4.384216819450524e-05
858412,-0.26,-0.26,-0.27,11.25,10.8,10.45,211.87,Stairs,2508.0,-3.189792663476874e-05,-3.5885167464114834e-05,-3.9872408293460924e-05,0.02119218500797448,0.020972886762360445,0.020781499202551835,1.9936204146734995e-05
860921,-0.19,-0.19,-0.2,-33.85,-34.79,-35.56,212.05,Stairs,2509.0,2.7899561578318056e-05,2.7899561578318056e-05,2.7899561578318056e-05,-0.017975288959744918,-0.018170585890793147,-0.018337983260263056,7.174172977282057e-05
863430,-0.11,-0.11,-0.11,-23.44,-23.01,-22.53,212.31,Stairs,2509.0,3.188521323236349e-05,3.188521323236349e-05,3.587086488640893e-05,0.004149063371861299,0.004695097648465523,0.005193304105221204,0.00010362694300517772
865939,-0.2,-0.2,-0.19,30.88,30.37,29.89,212.59,Stairs,2509.0,-3.587086488640893e-05,-3.587086488640893e-05,-3.188521323236349e-05,0.02165005978477481,0.02127540852929454,0.02089278597050618,0.00011159824631327267
870957,-0.16,-0.16,-0.16,-2.1,-1.37,-0.78,213.56,Stairs,5018.0,7.971303308090875e-06,7.971303308090875e-06,5.978477481068154e-06,-0.006572339577520924,-0.006325229174970108,-0.006111996811478677,0.00019330410522120343
873465,-0.21,-0.21,-0.21,-18.87,-18.27,-17.75,214.16,Stairs,2508.0,-1.993620414673046e-05,-1.993620414673046e-05,-1.993620414673046e-05,-0.006686602870813397,-0.006738437001594896,-0.006766347687400319,0.00023923444976076328
875974,-0.08,-0.08,-0.08,-17.81,-18.6,-19.6,214.58,Stairs,2509.0,5.1813471502590674e-05,5.1813471502590674e-05,5.1813471502590674e-05,0.00042247907532881715,-0.00013152650458350015,-0.0007373455559984063,0.00016739736946991466
878482,-0.24,-0.24,-0.25,-26.69,-26.57,-26.4,214.63,Stairs,2508.0,-6.379585326953747e-05,-6.379585326953747e-05,-6.778309409888356e-05,-0.003540669856459331,-0.0031778309409888354,-0.0027113237639553416,1.9936204146723662e-05
880991,-0.07,-0.07,-0.08,-41.05,-41.08,-41.29,214.54,Stairs,2509.0,6.775607811877242e-05,6.775607811877242e-05,6.775607811877242e-05,-0.005723395775209245,-0.005783180550019928,-0.005934635312873655,-3.5870864886410286e-05
883500,-0.13,-0.13,-0.12,-44.92,-44.16,-43.38,214.25,Stairs,2509.0,-2.3913909924272617e-05,-2.3913909924272617e-05,-1.5942606616181743e-05,-0.0015424471901155858,-0.0012275807094459937,-0.0008330011956954976,-0.00011558389796731449
886009,-0.17,-0.16,-0.16,43.47,45.08,46.6,213.97,Stairs,2509.0,-1.594260661618175e-05,-1.1956954962136309e-05,-1.594260661618175e-05,0.035229174970107614,0.035567955360701474,0.03586289358310084,-0.00011159824631327267
888517,-0.1,-0.1,-0.1,-14.28,-14.74,-15.27,213.54,Stairs,2508.0,2.791068580542265e-05,2.3923444976076556e-05,2.3923444976076556e-05,-0.023026315789473683,-0.023851674641148325,-0.024669059011164274,-0.0001714513556618847
891025,-0.22,-0.22,-0.21,36.73,36.5,36.37,213.09,Stairs,2508.0,-4.784688995215311e-05,-4.784688995215311e-05,-4.3859649122807014e-05,0.020338915470494417,0.02043062200956938,0.02059011164274322,-0.00017942583732056963
893533,-0.19,-0.19,-0.19,3.89,4.41,4.97,212.56,Stairs,2508.0,1.1961722488038278e-05,1.1961722488038278e-05,7.97448165869218e-06,-0.013094098883572566,-0.012795055821371613,-0.01251993620414673,-0.00021132376395534334
896042,-0.0,-0.0,-0.0,-39.24,-39.4,-39.63,212.11,Stairs,2509.0,7.57273814268633e-05,7.57273814268633e-05,7.57273814268633e-05,-0.017190115583897967,-0.01746113989637306,-0.017776006377042648,-0.0001793543244320401
898551,0.04,0.04,0.04,7.15,7.51,7.65,211.86,Stairs,2509.0,1.5942606616181746e-05,1.5942606616181746e-05,1.5942606616181746e-05,0.01848943802311678,0.01869669190912714,0.018844161020326825,-9.964129135113592e-05
901060,-0.09,-0.1,-0.1,-33.84,-34.01,-34.07,211.82,Stairs,2509.0,-5.1813471502590674e-05,-5.579912315663611e-05,-5.579912315663611e-05,-0.016337186129932246,-0.01654842566759665,-0.016628138700677562,-1.59426066161899e-05
903569,-0.01,-0.01,-0.01,28.21,28.48,28.78,211.9,Stairs,2509.0,3.188521323236349e-05,3.587086488640893e-05,3.587086488640893e-05,0.024730968513351936,0.02490633718612993,0.02504982064567557,3.188521323236847e-05
906078,-0.0,-0.01,-0.01,-14.74,-15.02,-15.21,212.19,Stairs,2509.0,3.9856516540454365e-06,0.0,0.0,-0.017118373854125152,-0.01733758469509765,-0.017532881626145875,0.00011558389796731449
908587,-0.02,-0.02,-0.03,-5.05,-4.69,-4.35,212.48,Stairs,2509.0,-7.971303308090873e-06,-3.9856516540454365e-06,-7.971303308090871e-06,0.0038620964527700283,0.0041171781586289355,0.004328417696293344,0.00011558389796731449
911096,-0.1,-0.1,-0.1,31.04,30.68,30.26,212.93,Stairs,2509.0,-3.188521323236349e-05,-3.188521323236349e-05,-2.7899561578318056e-05,0.014384216819449978,0.014097249900358707,0.013794340374651255,0.00017935432443205143
913605,-0.09,-0.08,-0.08,-35.6,-35.56,-35.46,213.38,Stairs,2509.0,3.98565165404544e-06,7.971303308090875e-06,7.971303308090875e-06,-0.02656038262255879,-0.026400956556396973,-0.026193702670386607,0.0001793543244320401
916114,0.01,0.0,0.0,-0.46,-0.13,0.16,213.85,Stairs,2509.0,3.9856516540454363e-05,3.188521323236349e-05,3.188521323236349e-05,0.014005579912315665,0.01412116381028298,0.014196891191709844,0.00018732562774013506
918622,0.09,0.09,0.09,24.44,24.7,24.93,214.49,Stairs,2508.0,3.189792663476874e-05,3.5885167464114834e-05,3.5885167464114834e-05,0.00992822966507177,0.009900318979266347,0.009876395534290271,0.0002551834130781558
921131,0.08,0.08,0.08,-7.27,-7.25,-7.29,214.71,Stairs,2509.0,-3.985651654045435e-06,-3.985651654045435e-06,-3.985651654045435e-06,-0.01263850139497808,-0.012734157034675168,-0.012841769629334397,8.768433638899914e-05
923640,0.0,-0.0,0.01,-54.54,-54.47,-54.34,214.69,Stairs,2509.0,-3.188521323236349e-05,-3.188521323236349e-05,-2.7899561578318056e-05,-0.018840175368672777,-0.01882024711040255,-0.01875249103228378,-7.97130330809495e-06
926149,0.08,0.08,0.08,-2.96,-2.94,-3.07,214.51,Stairs,2509.0,3.188521323236349e-05,3.188521323236349e-05,2.7899561578318056e-05,0.02055799123156636,0.020538062973296134,0.020434436030290954,-7.174172977282057e-05
928658,0.07,0.08,0.08,-18.76,-18.47,-18.13,214.19,Stairs,2509.0,-3.985651654045435e-06,0.0,0.0,-0.0062973296133917896,-0.006189717018732562,-0.006002391390992427,-0.00012754085292945126
931167,0.07,0.07,0.07,22.55,21.97,21.39,213.82,Stairs,2509.0,0.0,-3.985651654045435e-06,-3.985651654045435e-06,0.016464726982861697,0.016117975288959745,0.01575129533678756,-0.00014746911119968296
933675,0.06,0.07,0.07,-8.83,-8.98,-9.12,213.35,Stairs,2508.0,-3.987240829346096e-06,0.0,0.0,-0.01251196172248804,-0.012340510366826155,-0.012165071770334927,-0.00018740031897926588
936184,0.02,0.02,0.02,13.61,13.53,13.56,212.96,Stairs,2509.0,-1.5942606616181743e-05,-1.9928258270227182e-05,-1.9928258270227182e-05,0.008943802311677958,0.008971701873256277,0.009039457951375049,-0.0001554404145077666
938693,-0.04,-0.04,-0.04,39.31,39.27,38.97,212.42,Stairs,2509.0,-2.3913909924272617e-05,-2.3913909924272617e-05,-2.3913909924272617e-05,0.010243124750896773,0.010259067357512953,0.010127540852929452,-0.00021522518931846172
941202,0.0,0.01,0.01,-38.02,-37.69,-37.36,211.94,Stairs,2509.0,1.5942606616181746e-05,1.9928258270227182e-05,1.9928258270227182e-05,-0.030821044240733366,-0.03067357512953368,-0.030422479075328815,-0.00019131127939417687
943711,-0.27,-0.27,-0.27,46.02,45.34,44.64,211.72,Stairs,2509.0,-0.0001076125946592268,-0.00011159824631327223,-0.00011159824631327223,0.03349541650059785,0.03309286568353926,0.03268234356317258,-8.768433638899914e-05
946220,-0.14,-0.14,-0.15,12.09,11.82,11.67,211.73,Stairs,2509.0,5.1813471502590674e-05,5.1813471502590674e-05,4.782781984854525e-05,-0.01352331606217617,-0.013359904344360305,-0.013140693503387804,3.985651654041811e-06
948728,-0.21,-0.21,-0.22,27.56,28.69,29.76,211.93,Stairs,2508.0,-2.791068580542264e-05,-2.791068580542264e-05,-2.791068580542265e-05,0.006168261562998404,0.006726475279106858,0.007212918660287082,7.974481658692865e-05
951237,-0.19,-0.19,-0.18,41.86,41.92,42.05,212.28,Stairs,2509.0,7.97130330809087e-06,7.97130330809087e-06,1.594260661618175e-05,0.005699481865284974,0.0052730171383021125,0.00489836588282184,0.000139497807891588
953746,-0.22,-0.22,-0.22,14.32,15.02,15.77,212.62,Stairs,2509.0,-1.1956954962136309e-05,-1.1956954962136309e-05,-1.594260661618175e-05,-0.010976484655241132,-0.010721402949382225,-0.010474292546831406,0.0001355121562375462
956255,-0.14,-0.14,-0.14,43.54,43.1,42.68,213.13,Stairs,2509.0,3.1885213232363485e-05,3.1885213232363485e-05,3.1885213232363485e-05,0.011646074133120765,0.011191709844559587,0.01072538860103627,0.00020326823435631364
958764,-0.16,-0.16,-0.16,-24.56,-23.95,-23.32,213.57,Stairs,2509.0,-7.97130330809087e-06,-7.97130330809087e-06,-7.97130330809087e-06,-0.02714228776404942,-0.02672379434037465,-0.02630530091669988,0.0001753686727779983
961273,-0.12,-0.12,-0.13,12.81,12.73,12.6,214.19,Stairs,2509.0,1.594260661618175e-05,1.594260661618175e-05,1.1956954962136309e-05,0.014894380231167795,0.01461937026703866,0.014316460741331208,0.0002471104025508189
963781,-0.16,-0.16,-0.16,-10.02,-10.67,-11.4,214.52,Stairs,2508.0,-1.594896331738437e-05,-1.594896331738437e-05,-1.1961722488038278e-05,-0.009102870813397128,-0.009330143540669855,-0.009569377990430622,0.00013157894736842604
966290,-0.29,-0.3,-0.3,10.05,9.52,9.08,214.53,Stairs,2509.0,-5.181347150259067e-05,-5.5799123156636106e-05,-5.5799123156636106e-05,0.007999202869669191,0.008047030689517735,0.008162614587485054,3.985651654041811e-06
968799,-0.05,-0.06,-0.06,-19.2,-19.72,-20.23,214.4,Stairs,2509.0,9.565563969709047e-05,9.565563969709047e-05,9.565563969709047e-05,-0.011658031088082901,-0.011654045436428855,-0.011681944998007175,-5.181347150258886e-05
971308,-0.07,-0.06,-0.07,-39.27,-39.28,-39.32,214.11,Stairs,2509.0,-7.971303308090875e-06,0.0,-3.98565165404544e-06,-0.007999202869669193,-0.007795934635312874,-0.007608609007572738,-0.00011558389796731449
973817,-0.08,-0.08,-0.08,-23.6,-23.52,-23.34,213.84,Stairs,2509.0,-3.985651654045435e-06,-7.971303308090875e-06,-3.985651654045435e-06,0.0062455161418892,0.006281387006775608,0.006369071343164607,-0.00010761259465923086
976326,-0.15,-0.15,-0.15,27.56,27.54,27.63,213.4,Stairs,2509.0,-2.7899561578318053e-05,-2.7899561578318053e-05,-2.7899561578318053e-05,0.020390593862096452,0.020350737345555998,0.02031486648066959,-0.0001753686727779983
978834,-0.1,-0.1,-0.1,-31.72,-31.51,-31.31,212.97,Stairs,2508.0,1.993620414673046e-05,1.993620414673046e-05,1.993620414673046e-05,-0.023636363636363636,-0.023544657097288674,-0.02350079744816587,-0.0001714513556618847
981343,-0.07,-0.07,-0.07,74.53,73.44,71.79,212.33,Stairs,2509.0,1.1956954962136309e-05,1.1956954962136309e-05,1.1956954962136309e-05,0.042347548824232764,0.041829414109206854,0.041092068553208454,-0.0002550817058589025
983852,0.06,0.05,0.06,-19.35,-19.37,-19.41,211.78,Stairs,2509.0,5.1813471502590674e-05,4.782781984854524e-05,5.1813471502590674e-05,-0.037417297728178554,-0.0369908330011957,-0.036349143084894384,-0.00021921084097250353
986361,-0.03,-0.03,-0.02,7.68,7.45,7.21,211.62,Stairs,2509.0,-3.5870864886408924e-05,-3.188521323236349e-05,-3.188521323236349e-05,0.010773216420884815,0.01068951773614986,0.010609804703068952,-6.377042646472563e-05
988870,0.04,0.04,0.04,-55.81,-56.0,-56.24,211.62,Stairs,2509.0,2.7899561578318056e-05,2.7899561578318056e-05,2.3913909924272617e-05,-0.025304902351534476,-0.025288959744918297,-0.025288959744918297,0.0
991379,0.17,0.16,0.16,23.13,23.61,24.02,211.75,Stairs,2509.0,5.1813471502590674e-05,4.7827819848545235e-05,4.7827819848545235e-05,0.031462734157034676,0.03172977281785572,0.031988840175368675,5.181347150258886e-05
993887,0.04,0.04,0.04,17.66,17.73,17.72,212.04,Stairs,2508.0,-5.18341307814992e-05,-4.784688995215311e-05,-4.784688995215311e-05,-0.002181020733652312,-0.002344497607655502,-0.0025119617224880386,0.0001156299840510335
996396,0.02,0.02,0.03,-10.35,-10.08,-9.97,212.35,Stairs,2509.0,-7.971303308090873e-06,-7.971303308090873e-06,-3.985651654045437e-06,-0.011163810282981267,-0.01108409724990036,-0.011036269430051813,0.00012355520127540944
998905,0.12,0.11,0.11,1.33,1.44,1.57,212.79,Stairs,2509.0,3.9856516540454363e-05,3.5870864886408924e-05,3.188521323236349e-05,0.00465524113192507,0.004591470705460342,0.004599442008768434,0.0001753686727779983
1001414,-0.03,-0.03,-0.03,-7.15,-7.01,-7.0,213.26,Stairs,2509.0,-5.9784774810681545e-05,-5.579912315663611e-05,-5.579912315663611e-05,-0.0033798326026305303,-0.0033678756476683935,-0.003415703467516939,0.00018732562774013506
1003923,-0.06,-0.06,-0.06,-47.01,-47.27,-47.56,213.79,Stairs,2509.0,-1.1956954962136309e-05,-1.1956954962136309e-05,-1.1956954962136309e-05,-0.01588680749302511,-0.01604623355918693,-0.01616580310880829,0.00021123953766440858
1006432,-0.09,-0.09,-0.09,-25.82,-25.73,-25.69,214.33,Stairs,2509.0,-1.1956954962136309e-05,-1.1956954962136309e-05,-1.1956954962136309e-05,0.008445595854922279,0.008585093662813872,0.00871662016739737,0.00021522518931846172
1008940,0.03,0.03,0.03,9.1,8.68,8.28,214.61,Stairs,2508.0,4.784688995215311e-05,4.784688995215311e-05,4.784688995215311e-05,0.013923444976076556,0.013720095693779903,0.013544657097288675,0.00011164274322169105
1011449,-0.14,-0.14,-0.14,-31.91,-31.59,-31.31,214.51,Stairs,2509.0,-6.775607811877243e-05,-6.775607811877243e-05,-6.775607811877243e-05,-0.016345157433240335,-0.01605021921084097,-0.01577919489836588,-3.985651654046342e-05
1013958,-0.07,-0.06,-0.06,0.2,-0.15,-0.42,214.36,Stairs,2509.0,2.7899561578318056e-05,3.18852132323635e-05,3.18852132323635e-05,0.012797927461139896,0.012530888800318853,0.012311677959346352,-5.9784774810672485e-05
1016467,-0.26,-0.26,-0.27,-78.56,-79.8,-80.85,213.95,Stairs,2509.0,-7.57273814268633e-05,-7.971303308090873e-05,-8.369868473495417e-05,-0.03139099242726186,-0.031745715424471896,-0.03205659625348744,-0.00016341171781587287
1018976,-0.22,-0.21,-0.21,-6.46,-5.68,-4.87,213.56,Stairs,2509.0,1.594260661618175e-05,1.992825827022719e-05,2.3913909924272628e-05,0.0287365484256676,0.029541650059784777,0.030282981267437222,-0.0001554404145077666
1021485,-0.32,-0.32,-0.32,18.06,18.44,18.76,213.07,Stairs,2509.0,-3.9856516540454363e-05,-4.384216819449981e-05,-4.384216819449981e-05,0.00977281785571941,0.009613391789557594,0.009418094858509368,-0.00019529693104823002
1023993,-0.17,-0.16,-0.17,28.49,27.99,27.51,212.57,Stairs,2508.0,5.980861244019138e-05,6.379585326953749e-05,5.980861244019138e-05,0.0041586921850079745,0.0038078149920255174,0.003488835725677831,-0.00019936204146730463
1026502,-0.1,-0.1,-0.1,-107.5,-107.95,-108.31,211.9,Stairs,2509.0,2.7899561578318056e-05,2.3913909924272617e-05,2.7899561578318056e-05,-0.054200876843363895,-0.05418094858509366,-0.05413312076524512,-0.00026703866082103926
1029011,-0.2,-0.21,-0.21,-47.82,-47.47,-47.16,211.35,Stairs,2509.0,-3.9856516540454363e-05,-4.3842168194499796e-05,-4.3842168194499796e-05,0.023786369071343166,0.024105221203666802,0.024372259864487846,-0.00021921084097250353
1031520,-0.19,-0.18,-0.18,7.15,6.53,5.78,211.19,Stairs,2509.0,3.98565165404544e-06,1.1956954962136309e-05,1.1956954962136309e-05,0.021909127142287762,0.021522518931845355,0.02110003985651654,-6.377042646472563e-05
1034029,-0.23,-0.23,-0.23,-10.57,-11.02,-11.43,211.27,Stairs,2509.0,-1.594260661618175e-05,-1.992825827022719e-05,-1.992825827022719e-05,-0.0070625747309685126,-0.006994818652849741,-0.006859306496612197,3.188521323236847e-05
1036538,-0.02,-0.01,-0.01,-27.32,-27.31,-27.33,211.56,Stairs,2509.0,8.369868473495417e-05,8.76843363889996e-05,8.76843363889996e-05,-0.006675966520526106,-0.006492626544440015,-0.006337186129932244,0.00011558389796731449
1039046,-0.21,-0.2,-0.2,39.98,40.11,40.29,212.08,Stairs,2508.0,-7.575757575757576e-05,-7.575757575757576e-05,-7.575757575757576e-05,0.0268341307814992,0.026881977671451358,0.02696172248803828,0.0002073365231260009
1041555,-0.3,-0.3,-0.3,44.02,44.44,44.73,212.4,Stairs,2509.0,-3.5870864886408924e-05,-3.985651654045436e-05,-3.985651654045436e-05,0.0016102032682343587,0.0017257871662016732,0.0017696293343961729,0.00012754085292945126
1044064,-0.27,-0.27,-0.27,18.96,19.24,19.45,212.74,Stairs,2509.0,1.1956954962136299e-05,1.1956954962136299e-05,1.1956954962136299e-05,-0.009988043045037864,-0.010043842168194499,-0.010075727381426862,0.0001355121562375462
1046573,-0.11,-0.1,-0.1,-24.2,-24.25,-24.32,213.17,Stairs,2509.0,6.3770426464727e-05,6.775607811877243e-05,6.775607811877243e-05,-0.0172020725388601,-0.0173335990434436,-0.017445197289756874,0.00017138302112394514
1049082,-0.19,-0.18,-0.18,14.78,14.71,14.64,213.69,Stairs,2509.0,-3.188521323236349e-05,-3.1885213232363485e-05,-3.1885213232363485e-05,0.01553607014746911,0.015528098844161021,0.015528098844161021,0.00020725388601036676
1051591,-0.37,-0.37,-0.37,-57.69,-57.28,-56.91,214.15,Stairs,2509.0,-7.174172977281785e-05,-7.57273814268633e-05,-7.57273814268633e-05,-0.028884017536867278,-0.0286927062574731,-0.028517337584695098,0.00018333997608609325
1054099,-0.23,-0.23,-0.24,-62.27,-62.49,-62.69,214.34,Stairs,2508.0,5.582137161084529e-05,5.582137161084529e-05,5.18341307814992e-05,-0.0018261562998405124,-0.0020773524720893144,-0.002304625199362042,7.575757575757485e-05
1056608,-0.15,-0.14,-0.14,-30.48,-30.05,-29.53,214.33,Stairs,2509.0,3.18852132323635e-05,3.5870864886408924e-05,3.985651654045436e-05,0.012670386608210444,0.012929453965723394,0.013216420884814666,-3.985651654041811e-06
1059117,-0.1,-0.1,-0.09,-28.02,-28.02,-28.03,214.14,Stairs,2509.0,1.992825827022718e-05,1.594260661618175e-05,1.992825827022719e-05,0.0009804703068951777,0.0008090872857712241,0.0005978477481068154,-7.572738142687372e-05
1061626,-0.2,-0.2,-0.2,-73.27,-73.27,-73.31,213.82,Stairs,2509.0,-3.9856516540454363e-05,-3.9856516540454363e-05,-4.384216819449981e-05,-0.0180350737345556,-0.0180350737345556,-0.018047030689517737,-0.00012754085292945126
1064135,-0.35,-0.35,-0.35,-100.11,-100.19,-100.18,213.36,Stairs,2509.0,-5.978477481068153e-05,-5.978477481068153e-05,-5.978477481068153e-05,-0.010697489039457954,-0.010729374252690315,-0.01070944599442009,-0.00018333997608608192
1066644,-0.27,-0.27,-0.26,-59.89,-59.85,-59.75,212.75,Stairs,2509.0,3.188521323236348e-05,3.188521323236348e-05,3.587086488640892e-05,0.016030290952570744,0.01607811877241929,0.016113989637305703,-0.00024312475089677705
1089639,-0.1,-0.1,-0.1,-16.11,-15.96,-15.82,212.84,Stairs,22995.0,7.392911502500544e-06,7.392911502500544e-06,6.95803435529463e-06,0.001903892150467493,0.001908675799086758,0.0019104153076755816,3.913894324853377e-06
1092148,-0.02,-0.02,-0.03,-32.2,-32.42,-32.7,213.33,Stairs,2509.0,3.188521323236349e-05,3.188521323236349e-05,2.7899561578318056e-05,-0.006412913511359109,-0.006560382622558788,-0.006727779992028698,0.00019529693104823002
1094657,0.02,0.02,0.03,24.39,24.67,24.96,213.9,Stairs,2509.0,1.5942606616181746e-05,1.5942606616181746e-05,2.3913909924272617e-05,0.022554802710243127,0.022754085292945397,0.022981267437225988,0.00022718214428058716
1097166,-0.05,-0.05,-0.05,29.93,29.22,28.72,214.38,Stairs,2509.0,-2.7899561578318056e-05,-2.7899561578318056e-05,-3.188521323236349e-05,0.0022080510163411714,0.0018134715025906725,0.0014986050219210833,0.00019131127939417687
1099675,0.07,0.07,0.07,-4.89,-4.07,-3.27,214.59,Stairs,2509.0,4.782781984854524e-05,4.782781984854524e-05,4.782781984854524e-05,-0.01387803905938621,-0.013268234356317257,-0.01275009964129135,8.369868473495733e-05
1102184,-0.15,-0.15,-0.15,-25.93,-26.26,-26.44,214.54,Stairs,2509.0,-8.76843363889996e-05,-8.76843363889996e-05,-8.76843363889996e-05,-0.008385811080111598,-0.008844161020326823,-0.009234754882423276,-1.992825827023171e-05
1104693,0.07,0.08,0.07,20.41,21.24,22.03,214.39,Stairs,2509.0,8.76843363889996e-05,9.166998804304504e-05,8.76843363889996e-05,0.018469509764846553,0.018931845356715823,0.01931845356715823,-5.9784774810683815e-05
1107202,0.05,0.06,0.06,-19.33,-19.21,-19.37,214.01,Stairs,2509.0,-7.971303308090875e-06,-7.971303308090875e-06,-3.98565165404544e-06,-0.015838979673176563,-0.016121960940613793,-0.01650059784774811,-0.00015145476285372477
1109711,-0.02,-0.02,-0.02,-27.35,-27.82,-28.12,213.68,Stairs,2509.0,-2.7899561578318056e-05,-3.188521323236349e-05,-3.188521323236349e-05,-0.0031964926265444413,-0.0034316460741331207,-0.003487445197289757,-0.00013152650458349307
1112220,0.26,0.25,0.23,5.5,6.18,6.92,213.19,Stairs,2509.0,0.00011159824631327223,0.0001076125946592268,9.964129135113592e-05,0.013092865683539259,0.013551215623754484,0.013965723395775209,-0.00019529693104823002
1114729,-0.1,-0.1,-0.1,26.37,26.89,27.4,212.61,Stairs,2509.0,-0.0001434834595456357,-0.00013949780789159028,-0.00013152650458349941,0.008318055001992826,0.0082542845755281,0.008162614587485052,-0.00023116779593462897
1117238,-0.2,-0.2,-0.19,-8.93,-9.25,-9.5,211.89,Stairs,2509.0,-3.9856516540454363e-05,-3.9856516540454363e-05,-3.5870864886408924e-05,-0.014069350338780389,-0.014404145077720207,-0.01470705460342766,-0.0002869669190912823
1119747,-0.06,-0.06,-0.06,-42.93,-42.7,-42.62,211.4,Stairs,2509.0,5.579912315663611e-05,5.579912315663611e-05,5.1813471502590674e-05,-0.013551215623754484,-0.013332004782781987,-0.013200478278198485,-0.0001952969310482187
1122256,-0.18,-0.18,-0.18,41.31,40.52,39.71,211.25,Stairs,2509.0,-4.7827819848545235e-05,-4.7827819848545235e-05,-4.7827819848545235e-05,0.03357512953367876,0.03316859306496612,0.03281387006775608,-5.9784774810683815e-05
1124765,-0.13,-0.13,-0.14,-13.14,-14.36,-15.57,211.29,Stairs,2509.0,1.992825827022718e-05,1.992825827022718e-05,1.594260661618174e-05,-0.021701873256277402,-0.021873256277401356,-0.022032682343563172,1.5942606616178575e-05
1127274,-0.14,-0.15,-0.15,-46.82,-46.2,-45.58,211.62,Stairs,2509.0,-3.98565165404544e-06,-7.97130330809087e-06,-3.985651654045429e-06,-0.01342367477082503,-0.012690314866480671,-0.011960940613790353,0.00013152650458350437
1129783,-0.01,-0.02,-0.01,-8.84,-9.21,-9.5,211.9,Stairs,2509.0,5.1813471502590674e-05,5.1813471502590674e-05,5.5799123156636106e-05,0.01513750498206457,0.01474292546831407,0.014380231167795934,0.00011159824631327267
1132292,-0.12,-0.12,-0.12,-18.7,-18.39,-18.11,212.34,Stairs,2509.0,-4.38421681944998e-05,-3.9856516540454363e-05,-4.38421681944998e-05,-0.0039298525308888,-0.0036588282184137105,-0.0034316460741331207,0.0001753686727779983
1134801,0.07,0.06,0.06,-6.76,-7.13,-7.48,212.92,Stairs,2509.0,7.57273814268633e-05,7.174172977281785e-05,7.174172977281785e-05,0.004758868074930251,0.004487843762455162,0.004236747708250299,0.00023116779593462897
1137310,-0.17,-0.18,-0.18,58.11,58.63,59.15,213.46,Stairs,2509.0,-9.565563969709048e-05,-9.565563969709047e-05,-9.565563969709047e-05,0.025854922279792747,0.026209645277002792,0.02655639697090474,0.00021522518931846172
1139818,-0.22,-0.22,-0.23,-0.63,-0.05,0.49,213.97,Stairs,2508.0,-1.993620414673046e-05,-1.594896331738437e-05,-1.993620414673047e-05,-0.023421052631578947,-0.02339712918660287,-0.023389154704944178,0.0002033492822966471
1142327,-0.11,-0.11,-0.11,-42.56,-42.11,-41.6,214.12,Stairs,2509.0,4.38421681944998e-05,4.38421681944998e-05,4.782781984854524e-05,-0.016711837385412515,-0.016763650856915106,-0.016775607811877244,5.9784774810683815e-05
1144836,-0.09,-0.09,-0.09,-16.6,-16.25,-15.85,214.03,Stairs,2509.0,7.971303308090875e-06,7.971303308090875e-06,7.971303308090875e-06,0.010346751693901953,0.010306895177361499,0.010263053009166998,-3.5870864886410286e-05
1147345,-0.14,-0.14,-0.14,-7.69,-7.6,-7.5,213.69,Stairs,2509.0,-1.992825827022719e-05,-1.992825827022719e-05,-1.992825827022719e-05,0.0035512156237544838,0.0034475886807493025,0.0033280191311279394,-0.0001355121562375462
1149854,-0.12,-0.12,-0.13,-1.0,-1.13,-1.21,213.32,Stairs,2509.0,7.97130330809088e-06,7.97130330809088e-06,3.98565165404544e-06,0.0026664009565563972,0.0025787166201673975,0.0025069748903945796,-0.00014746911119968296
1152363,-0.09,-0.08,-0.08,-62.85,-62.53,-62.14,212.91,Stairs,2509.0,1.1956954962136309e-05,1.5942606616181743e-05,1.9928258270227182e-05,-0.024651255480271025,-0.024471901155838978,-0.024284575528098845,-0.00016341171781586154
1154872,-0.04,-0.05,-0.05,-41.82,-41.75,-41.74,212.37,Stairs,2509.0,1.9928258270227182e-05,1.1956954962136309e-05,1.1956954962136309e-05,0.008381825428457553,0.008282184137106418,0.00813072937425269,-0.0002152251893184504
1157381,-0.36,-0.36,-0.36,68.5,68.72,68.92,211.82,Stairs,2509.0,-0.00012754085292945397,-0.00012355520127540852,-0.00012355520127540852,0.04396970904742925,0.04402949382223994,0.0441052212036668,-0.00021921084097250353
1159890,-0.15,-0.15,-0.16,-12.42,-12.62,-12.73,211.28,Stairs,2509.0,8.369868473495416e-05,8.369868473495416e-05,7.971303308090873e-05,-0.032251893184535675,-0.03241929055400558,-0.03254284575528099,-0.0002152251893184504
1162399,-0.21,-0.21,-0.21,-18.86,-18.39,-17.8,211.03,Stairs,2509.0,-2.3913909924272617e-05,-2.3913909924272617e-05,-1.992825827022718e-05,-0.0025667596652052607,-0.002299721004384217,-0.0020207253886010365,-9.964129135113592e-05
1164908,-0.23,-0.22,-0.22,20.33,20.47,20.46,211.02,Stairs,2509.0,-7.97130330809088e-06,-3.98565165404544e-06,-3.98565165404544e-06,0.015619768832204065,0.015488242327620565,0.015249103228377843,-3.985651654041811e-06
1167417,-0.09,-0.09,-0.1,15.79,14.58,13.4,211.15,Stairs,2509.0,5.579912315663611e-05,5.1813471502590674e-05,4.7827819848545235e-05,-0.0018094858509366278,-0.0023475488242327616,-0.0028138700677560785,5.181347150258886e-05
1169926,-0.04,-0.04,-0.04,16.08,16.4,16.75,211.41,Stairs,2509.0,1.9928258270227182e-05,1.9928258270227182e-05,2.391390992427262e-05,0.00011558389796731732,0.0007253886010362688,0.001335193304105221,0.00010362694300517772
1172435,-0.1,-0.1,-0.1,-1.02,-1.27,-1.53,211.72,Stairs,2509.0,-2.391390992427262e-05,-2.391390992427262e-05,-2.391390992427262e-05,-0.006815464328417695,-0.0070426464726982855,-0.007285771223595058,0.00012355520127540944
1174944,-0.08,-0.07,-0.07,-3.56,-3.24,-2.89,212.12,Stairs,2509.0,7.971303308090875e-06,1.1956954962136309e-05,1.1956954962136309e-05,-0.0010123555201275408,-0.000785173375846951,-0.0005420486249501794,0.00015942606616181973
1177453,-0.17,-0.16,-0.16,28.45,28.25,28.02,212.64,Stairs,2509.0,-3.587086488640893e-05,-3.5870864886408924e-05,-3.5870864886408924e-05,0.012758070944599442,0.01255081705858908,0.012319649262654444,0.00020725388601035543
1179962,-0.27,-0.27,-0.27,-68.92,-68.92,-69.04,213.24,Stairs,2509.0,-3.9856516540454363e-05,-4.384216819449981e-05,-4.384216819449981e-05,-0.03880829015544042,-0.038728577122359505,-0.03868473495416501,0.00023913909924273526
1182471,-0.15,-0.15,-0.15,-25.02,-24.91,-24.79,213.8,Stairs,2509.0,4.782781984854525e-05,4.782781984854525e-05,4.782781984854525e-05,0.01749701076125947,0.017540852929453968,0.01763650856915106,0.00022319649262654535
1184979,0.03,0.03,0.02,-12.76,-12.94,-13.11,214.07,Stairs,2508.0,7.177033492822967e-05,7.177033492822967e-05,6.778309409888356e-05,0.004888357256778309,0.004772727272727273,0.004657097288676236,0.00010765550239233724
1187488,0.04,0.04,0.04,-6.3,-6.36,-6.42,214.01,Stairs,2509.0,3.985651654045437e-06,3.985651654045437e-06,7.971303308090873e-06,0.002574730968513352,0.0026225587883618967,0.002666400956556397,-2.3913909924273525e-05
1189997,-0.03,-0.03,-0.03,-22.21,-22.2,-22.12,213.78,Stairs,2509.0,-2.7899561578318056e-05,-2.7899561578318056e-05,-2.7899561578318056e-05,-0.006341171781586289,-0.006313272220007971,-0.0062574730968513355,-9.166998804304096e-05
1192506,0.07,0.06,0.06,-5.04,-4.18,-3.49,213.42,Stairs,2509.0,3.9856516540454363e-05,3.5870864886408924e-05,3.5870864886408924e-05,0.006843363889996015,0.0071821442805898765,0.007425269031486649,-0.00014348345954564115
1195015,0.11,0.11,0.11,-19.47,-19.46,-19.67,213.0,Stairs,2509.0,1.5942606616181743e-05,1.9928258270227182e-05,1.9928258270227182e-05,-0.005751295336787565,-0.006090075727381427,-0.0064487843762455165,-0.00016739736946990336
1197524,0.05,0.05,0.05,32.23,32.09,31.93,212.5,Stairs,2509.0,-2.3913909924272617e-05,-2.3913909924272617e-05,-2.3913909924272617e-05,0.020605819051414904,0.020546034276604227,0.020565962534874454,-0.00019928258270227183
1200033,0.09,0.09,0.09,4.52,4.43,4.37,211.98,Stairs,2509.0,1.5942606616181743e-05,1.5942606616181743e-05,1.5942606616181743e-05,-0.011044240733359903,-0.011024312475089679,-0.010984455958549222,-0.00020725388601036676
1202542,0.22,0.22,0.21,46.12,46.05,45.89,211.34,Stairs,2509.0,5.1813471502590674e-05,5.1813471502590674e-05,4.7827819848545235e-05,0.016580310880829015,0.016588282184137104,0.016548425667596654,-0.0002550817058589025
1205051,0.05,0.06,0.06,35.95,35.44,34.85,211.02,Stairs,2509.0,-6.775607811877242e-05,-6.377042646472698e-05,-5.9784774810681545e-05,-0.004053407732164207,-0.004228776404942207,-0.004400159426066161,-0.00012754085292945126
1207560,0.12,0.12,0.12,-5.64,-6.32,-7.08,211.01,Stairs,2509.0,2.7899561578318053e-05,2.3913909924272617e-05,2.3913909924272617e-05,-0.01657632522917497,-0.01664408130729374,-0.016711837385412515,-3.9856516540531394e-06
1210069,-0.04,-0.04,-0.04,-35.47,-35.5,-35.56,211.07,Stairs,2509.0,-6.377042646472698e-05,-6.377042646472698e-05,-6.377042646472698e-05,-0.011889198884017536,-0.011630131526504583,-0.011351135910721405,2.3913909924273525e-05
1212578,-0.01,-0.01,-0.01,-8.73,-8.4,-8.09,211.29,Stairs,2509.0,1.1956954962136309e-05,1.1956954962136309e-05,1.1956954962136309e-05,0.010657632522917496,0.010801115982463133,0.010948585093662816,8.768433638899914e-05
1215087,0.12,0.11,0.11,28.25,28.73,29.25,211.59,Stairs,2509.0,5.1813471502590674e-05,4.7827819848545235e-05,4.7827819848545235e-05,0.014738939816660026,0.014798724591470707,0.014882423276205661,0.00011956954962136763
1217596,-0.04,-0.04,-0.04,-19.43,-19.48,-19.42,212.08,Stairs,2509.0,-6.377042646472698e-05,-5.9784774810681545e-05,-5.9784774810681545e-05,-0.01900358708648864,-0.01921482662415305,-0.01939816660023914,0.00019529693104823002
1220105,0.05,0.05,0.04,-33.9,-33.98,-34.05,212.59,Stairs,2509.0,3.5870864886408924e-05,3.5870864886408924e-05,3.188521323236349e-05,-0.005767237943403746,-0.005779194898365881,-0.005831008369868471,0.00020326823435631364
1222614,-0.03,-0.03,-0.03,-39.49,-39.4,-39.2,213.06,Stairs,2509.0,-3.188521323236349e-05,-3.188521323236349e-05,-2.7899561578318056e-05,-0.0022279792746114,-0.002160223196492627,-0.002052610601833402,0.00018732562774013506
1225123,0.13,0.13,0.13,70.74,70.25,69.92,213.56,Stairs,2509.0,6.377042646472698e-05,6.377042646472698e-05,6.377042646472698e-05,0.043933838182542845,0.04370267038660821,0.0434914308489438,0.00019928258270227183
1227632,-0.14,-0.14,-0.13,-58.03,-57.94,-57.85,214.11,Stairs,2509.0,-0.0001076125946592268,-0.0001076125946592268,-0.00010362694300518135,-0.05132323634914308,-0.05109206855320845,-0.05092467118373854,0.00021921084097250353
1230141,-0.1,-0.09,-0.09,34.26,33.68,33.01,214.27,Stairs,2509.0,1.594260661618175e-05,1.992825827022719e-05,1.594260661618175e-05,0.03678357911518533,0.03651654045436429,0.036213630928656836,6.377042646472563e-05
1232650,-0.21,-0.2,-0.2,33.41,34.22,35.06,214.19,Stairs,2509.0,-4.3842168194499796e-05,-4.384216819449981e-05,-4.384216819449981e-05,-0.00033878039059386265,0.00021522518931845323,0.0008170585890793162,-3.188521323236847e-05
1235159,-0.09,-0.08,-0.09,-32.85,-32.37,-31.93,213.9,Stairs,2509.0,4.7827819848545235e-05,4.782781984854524e-05,4.384216819449981e-05,-0.02640892785970506,-0.026540454364288563,-0.026699880430450382,-0.00011558389796731449
1237668,-0.18,-0.18,-0.17,-26.85,-26.64,-26.43,213.43,Stairs,2509.0,-3.5870864886408924e-05,-3.9856516540454363e-05,-3.18852132323635e-05,0.0023913909924272616,0.002283778397768034,0.00219210840972499,-0.00018732562774013506
1240177,-0.33,-0.33,-0.32,-88.3,-87.21,-86.31,212.94,Stairs,2509.0,-5.978477481068155e-05,-5.978477481068155e-05,-5.9784774810681545e-05,-0.024491829414109205,-0.024141092068553204,-0.023866082104424074,-0.00019529693104823002
1242686,-0.18,-0.18,-0.18,6.19,5.86,5.44,212.37,Stairs,2509.0,5.978477481068155e-05,5.978477481068155e-05,5.579912315663611e-05,0.03766042247907533,0.037094459944200874,0.03656835392586688,-0.00022718214428058716
1245195,-0.36,-0.36,-0.36,92.68,93.63,94.53,211.82,Stairs,2509.0,-7.174172977281785e-05,-7.174172977281785e-05,-7.174172977281785e-05,0.03447190115583898,0.03498206456755679,0.03550817058589079,-0.00021921084097250353
1247704,-0.34,-0.35,-0.35,-32.44,-33.18,-33.86,211.28,Stairs,2509.0,7.971303308090858e-06,3.98565165404544e-06,3.98565165404544e-06,-0.0498684734954165,-0.05054204862495018,-0.05117178158628935,-0.0002152251893184504
1250213,-0.19,-0.2,-0.19,-23.47,-23.12,-22.66,210.94,Stairs,2509.0,5.978477481068155e-05,5.978477481068153e-05,6.377042646472697e-05,0.003575129533678756,0.004009565563969708,0.004463929852530889,-0.0001355121562375462
1252722,-0.25,-0.25,-0.25,69.17,68.89,68.63,210.91,Stairs,2509.0,-2.3913909924272617e-05,-1.992825827022718e-05,-2.3913909924272617e-05,0.036923076923076927,0.036671980868872064,0.03638501394978078,-1.1956954962136763e-05
1255231,-0.28,-0.28,-0.28,-8.17,-8.59,-9.11,211.03,Stairs,2509.0,-1.195695496213632e-05,-1.195695496213632e-05,-1.195695496213632e-05,-0.030825029892387407,-0.030880829015544044,-0.03098445595854922,4.782781984854705e-05
1257740,-0.23,-0.24,-0.24,-25.53,-25.37,-25.03,211.28,Stairs,2509.0,1.992825827022719e-05,1.594260661618176e-05,1.594260661618176e-05,-0.006919091271422878,-0.006687923475488243,-0.006345157433240336,9.964129135113592e-05
1260249,-0.31,-0.31,-0.31,62.55,62.81,63.1,211.59,Stairs,2509.0,-3.1885213232363485e-05,-2.7899561578318056e-05,-2.7899561578318056e-05,0.035105619768832204,0.03514547628537266,0.03512554802710243,0.00012355520127540944
1262758,-0.42,-0.41,-0.41,-36.76,-37.11,-37.23,211.96,Stairs,2509.0,-4.3842168194499796e-05,-3.985651654045436e-05,-3.985651654045436e-05,-0.03958150657632523,-0.039824631327222,-0.03998804304503786,0.00014746911119968296
1265267,-0.26,-0.25,-0.26,9.02,9.88,10.59,212.42,Stairs,2509.0,6.377042646472697e-05,6.377042646472697e-05,5.978477481068153e-05,0.018246313272220007,0.018728577122359508,0.019059386209645274,0.00018333997608608192
1267776,-0.26,-0.26,-0.26,-5.55,-5.63,-5.67,212.92,Stairs,2509.0,0.0,-3.98565165404544e-06,0.0,-0.005807094459944201,-0.006181745715424473,-0.0064806695894778785,0.00019928258270227183
1270285,-0.32,-0.32,-0.32,-38.4,-38.69,-38.8,213.46,Stairs,2509.0,-2.3913909924272617e-05,-2.3913909924272617e-05,-2.3913909924272617e-05,-0.013092865683539259,-0.013176564368274211,-0.01320446392985253,0.00021522518931846172
1272794,-0.55,-0.55,-0.53,2.82,2.23,1.73,213.75,Stairs,2509.0,-9.166998804304505e-05,-9.166998804304505e-05,-8.369868473495417e-05,0.016428856117975288,0.016309286568353922,0.01615384615384615,0.00011558389796731449
1275303,-0.26,-0.26,-0.26,21.23,20.89,20.52,213.77,Stairs,2509.0,0.00011558389796731767,0.00011558389796731767,0.0001076125946592268,0.007337584695097648,0.007437225986448784,0.007489039457951375,7.97130330809495e-06
1277812,-0.09,-0.09,-0.09,-32.85,-32.82,-32.78,213.57,Stairs,2509.0,6.775607811877243e-05,6.775607811877243e-05,6.775607811877243e-05,-0.02155440414507772,-0.021406935033878038,-0.021243523316062177,-7.971303308091553e-05
1280321,-0.17,-0.17,-0.17,-3.27,-3.43,-3.54,213.25,Stairs,2509.0,-3.18852132323635e-05,-3.18852132323635e-05,-3.18852132323635e-05,0.011789557592666401,0.011713830211239538,0.011654045436428857,-0.00012754085292945126
1282830,-0.46,-0.45,-0.45,1.76,1.27,0.74,212.91,Stairs,2509.0,-0.00011558389796731767,-0.00011159824631327223,-0.00011159824631327223,0.0020047827819848546,0.0018732562774013552,0.0017058589079314468,-0.0001355121562375462
1285339,0.03,0.03,0.03,-180.98,-182.04,-183.15,212.45,Stairs,2509.0,0.00019529693104822639,0.00019131127939418094,0.00019131127939418094,-0.0728337983260263,-0.0730609804703069,-0.07329214826624153,-0.00018333997608609325
1287848,-0.36,-0.37,-0.37,3.97,3.66,3.5,212.13,Stairs,2509.0,-0.00015544041450777204,-0.00015942606616181745,-0.00015942606616181745,0.07371462734157035,0.07401355121562375,0.07439218812275808,-0.00012754085292945126
1290356,-0.32,-0.32,-0.32,19.7,19.24,18.75,211.59,Stairs,2508.0,1.594896331738436e-05,1.993620414673046e-05,1.993620414673046e-05,0.006271929824561403,0.006212121212121211,0.006080542264752791,-0.00021531100478468582
1292865,-0.16,-0.17,-0.17,-16.59,-16.31,-16.01,211.12,Stairs,2509.0,6.377042646472698e-05,5.9784774810681545e-05,5.9784774810681545e-05,-0.014463929852530888,-0.014168991630131526,-0.01385412514946194,-0.00018732562774013506
1295374,-0.28,-0.29,-0.29,59.41,59.73,59.99,210.94,Stairs,2509.0,-4.782781984854525e-05,-4.782781984854522e-05,-4.782781984854522e-05,0.03029095257074532,0.030306895177361494,0.03029095257074532,-7.174172977282057e-05
1297883,-0.3,-0.3,-0.3,17.63,17.44,17.25,211.01,Stairs,2509.0,-7.971303308090858e-06,-3.98565165404544e-06,-3.98565165404544e-06,-0.016652052610601834,-0.01685532084495815,-0.017034675169390195,2.7899561578315336e-05
1300392,-0.41,-0.42,-0.42,65.06,65.6,65.98,211.25,Stairs,2509.0,-4.3842168194499796e-05,-4.7827819848545235e-05,-4.7827819848545235e-05,0.018903945795137506,0.01919489836588282,0.019422080510163413,9.56556396970941e-05
1302901,-0.21,-0.21,-0.22,16.69,16.66,16.66,211.55,Stairs,2509.0,7.971303308090873e-05,8.369868473495416e-05,7.971303308090873e-05,-0.01927859705061778,-0.019505779194898366,-0.019657233957752096,0.00011956954962136763
1305410,-0.31,-0.31,-0.31,-70.63,-70.73,-70.9,211.97,Stairs,2509.0,-3.9856516540454363e-05,-3.9856516540454363e-05,-3.5870864886408924e-05,-0.03480271024312475,-0.03483060980470307,-0.034898365882821844,0.00016739736946990336
1307919,-0.24,-0.24,-0.24,88.07,87.02,86.08,212.41,Stairs,2509.0,2.7899561578318056e-05,2.7899561578318056e-05,2.7899561578318056e-05,0.06325229174970107,0.06287365484256675,0.06256675966520527,0.0001753686727779983
1310428,-0.29,-0.29,-0.29,-68.56,-68.34,-68.02,212.85,Stairs,2509.0,-1.992825827022718e-05,-1.992825827022718e-05,-1.992825827022718e-05,-0.06242726185731367,-0.061921084097249904,-0.06141889198884017,0.0001753686727779983
1312937,-0.09,-0.09,-0.09,-34.13,-34.14,-34.1,213.44,Stairs,2509.0,7.971303308090873e-05,7.971303308090873e-05,7.971303308090873e-05,0.013722598644878438,0.013630928656835394,0.013519330410522118,0.00023515344758868212
1315446,-0.26,-0.27,-0.27,-35.05,-34.87,-34.57,213.62,Stairs,2509.0,-6.775607811877243e-05,-7.174172977281786e-05,-7.174172977281786e-05,-0.000366679952172178,-0.0002909525707453156,-0.00018732562774013506,7.174172977282057e-05
1317955,-0.3,-0.29,-0.3,-15.42,-15.68,-15.94,213.54,Stairs,2509.0,-1.594260661618174e-05,-7.971303308090858e-06,-1.1956954962136299e-05,0.007823834196891189,0.007648465524113191,0.007425269031486649,-3.188521323236847e-05
1320464,-0.12,-0.12,-0.13,0.27,0.08,-0.21,213.26,Stairs,2509.0,7.174172977281785e-05,6.775607811877242e-05,6.775607811877242e-05,0.00625348744519729,0.006281387006775608,0.006269430051813471,-0.00011159824631327267
1322973,-0.17,-0.17,-0.18,-18.03,-17.44,-16.73,212.99,Stairs,2509.0,-1.992825827022719e-05,-1.992825827022719e-05,-1.992825827022718e-05,-0.007293742526903149,-0.006982861697887604,-0.006584296532483061,-0.00010761259465921953
1325482,-0.36,-0.36,-0.36,29.85,29.22,28.64,212.53,Stairs,2509.0,-7.572738142686328e-05,-7.572738142686328e-05,-7.174172977281785e-05,0.01908330011956955,0.018597050617776004,0.018082901554404146,-0.00018333997608609325
1327991,-0.2,-0.2,-0.2,-89.08,-88.56,-87.99,212.19,Stairs,2509.0,6.377042646472697e-05,6.377042646472697e-05,6.377042646472697e-05,-0.04740135512156238,-0.04694300518134715,-0.04648465524113193,-0.0001355121562375462
1330500,-0.52,-0.52,-0.52,-47.24,-47.84,-48.48,211.72,Stairs,2509.0,-0.00012754085292945397,-0.00012754085292945397,-0.00012754085292945397,0.016675966520526105,0.016229573535273017,0.015747309685133517,-0.00018732562774013506
1333009,-0.23,-0.24,-0.23,43.92,44.71,45.53,211.2,Stairs,2509.0,0.00011558389796731767,0.00011159824631327223,0.00011558389796731767,0.0363332004782782,0.03688720605819052,0.037469111199681146,-0.00020725388601036676
1335518,-0.28,-0.28,-0.28,121.65,121.31,121.05,210.91,Stairs,2509.0,-1.992825827022719e-05,-1.594260661618176e-05,-1.992825827022719e-05,0.03098047030689518,0.03053009166998804,0.030099641291351134,-0.00011558389796731449
1338027,-0.6,-0.59,-0.6,58.32,57.07,56.29,210.95,Stairs,2509.0,-0.00012754085292945394,-0.0001235552012754085,-0.00012754085292945394,-0.02524113192506975,-0.02560382622558789,-0.02581108011159824,1.5942606616178575e-05
1340536,-0.25,-0.25,-0.25,-47.61,-47.18,-46.86,211.01,Stairs,2509.0,0.00013949780789159028,0.00013551215623754483,0.00013949780789159028,-0.04222000797130331,-0.041550418493423676,-0.04111199681147868,2.3913909924273525e-05
1343045,-0.23,-0.23,-0.23,67.44,67.21,67.01,211.26,Stairs,2509.0,7.97130330809087e-06,7.97130330809087e-06,7.97130330809087e-06,0.045854922279792744,0.045591869270625744,0.045384615384615384,9.964129135113592e-05
1345554,-0.28,-0.28,-0.28,0.93,0.95,0.91,211.6,Stairs,2509.0,-1.992825827022719e-05,-1.992825827022719e-05,-1.992825827022719e-05,-0.026508569151056195,-0.02640892785970506,-0.026345157433240337,0.0001355121562375462
1348063,-0.32,-0.31,-0.31,-73.91,-74.11,-74.34,211.91,Stairs,2509.0,-1.594260661618174e-05,-1.1956954962136299e-05,-1.1956954962136299e-05,-0.02982861697887605,-0.029916301315265046,-0.02999202869669191,0.00012355520127540944
1350572,-0.34,-0.34,-0.34,78.65,78.73,78.69,212.38,Stairs,2509.0,-7.97130330809088e-06,-1.195695496213632e-05,-1.195695496213632e-05,0.060805101634117176,0.06091669988043045,0.060992427261857315,0.00018732562774013506
1353081,-0.19,-0.19,-0.2,-8.63,-8.56,-8.45,212.88,Stairs,2509.0,5.978477481068155e-05,5.978477481068155e-05,5.579912315663611e-05,-0.03478676763650857,-0.03479075328816262,-0.03473096851335193,0.00019928258270227183
1355590,-0.22,-0.21,-0.21,-45.7,-45.64,-45.52,213.38,Stairs,2509.0,-1.1956954962136309e-05,-7.97130330809087e-06,-3.985651654045429e-06,-0.014774810681546433,-0.014778796333200478,-0.014774810681546435,0.00019928258270227183
1358099,-0.36,-0.36,-0.36,3.46,4.51,5.39,213.8,Stairs,2509.0,-5.5799123156636106e-05,-5.9784774810681545e-05,-5.9784774810681545e-05,0.019593463531287367,0.019988043045037863,0.02029095257074532,0.00016739736946991466
1360608,-0.06,-0.06,-0.06,-18.21,-17.31,-16.27,213.89,Stairs,2509.0,0.00011956954962136309,0.00011956954962136309,0.00011956954962136309,-0.008636907134316462,-0.008696691909127143,-0.008632921482662415,3.5870864886398957e-05
1363117,-0.15,-0.16,-0.17,-12.66,-12.47,-12.32,213.83,Stairs,2509.0,-3.5870864886408924e-05,-3.9856516540454363e-05,-4.384216819449981e-05,0.0022120366679952174,0.0019290554005579905,0.0015743324033479472,-2.3913909924262196e-05
1365626,-0.23,-0.23,-0.23,-0.98,-1.19,-1.48,213.56,Stairs,2509.0,-3.18852132323635e-05,-2.7899561578318056e-05,-2.3913909924272617e-05,0.00465524113192507,0.004495815065763253,0.004320446392985253,-0.00010761259465923086
1368135,-0.27,-0.27,-0.28,-21.79,-22.19,-22.62,213.34,Stairs,2509.0,-1.594260661618175e-05,-1.594260661618175e-05,-1.992825827022719e-05,-0.008294141092068552,-0.008369868473495417,-0.008425667596652054,-8.768433638899914e-05
1370644,-0.24,-0.24,-0.24,-90.13,-90.31,-90.37,212.95,Stairs,2509.0,1.195695496213632e-05,1.195695496213632e-05,1.594260661618176e-05,-0.027237943403746512,-0.027150259067357515,-0.027002789956157833,-0.00015544041450777792
1373153,-0.11,-0.11,-0.11,-33.59,-33.08,-32.58,212.5,Stairs,2509.0,5.1813471502590674e-05,5.1813471502590674e-05,5.1813471502590674e-05,0.022534874451972893,0.022809884416102034,0.02303308090872858,-0.0001793543244320401
1375662,-0.23,-0.23,-0.22,99.33,99.13,98.86,211.96,Stairs,2509.0,-4.782781984854524e-05,-4.782781984854524e-05,-4.38421681944998e-05,0.05297728178557195,0.05269430051813471,0.05238740534077321,-0.0002152251893184504
1378171,-0.39,-0.39,-0.39,35.13,35.81,36.32,211.39,Stairs,2509.0,-6.377042646472698e-05,-6.377042646472698e-05,-6.775607811877243e-05,-0.0255878836189717,-0.025237146273415702,-0.02492626544440016,-0.0002271821442805985
1380680,-0.19,-0.19,-0.2,-5.4,-5.41,-5.47,211.11,Stairs,2509.0,7.971303308090873e-05,7.971303308090873e-05,7.57273814268633e-05,-0.016153846153846154,-0.016428856117975288,-0.016656038262255878,-0.00011159824631326134
1383188,-0.48,-0.48,-0.48,13.56,13.12,12.68,211.12,Stairs,2508.0,-0.00011562998405103667,-0.00011562998405103667,-0.00011164274322169058,0.007559808612440192,0.0073883572567783095,0.007236842105263157,3.987240829342466e-06
1385697,-0.25,-0.24,-0.24,0.16,0.15,0.18,211.2,Stairs,2509.0,9.166998804304504e-05,9.565563969709047e-05,9.565563969709047e-05,-0.005340773216420885,-0.005169390195296931,-0.004982064567556795,3.188521323235715e-05
1388206,0.01,0.01,0.02,-42.52,-42.31,-42.36,211.45,Stairs,2509.0,0.00010362694300518135,9.964129135113592e-05,0.00010362694300518135,-0.017010761259465924,-0.016923076923076923,-0.016954962136309287,9.964129135113592e-05
1390715,-0.02,-0.02,-0.02,-12.99,-13.17,-13.28,211.76,Stairs,2509.0,-1.1956954962136309e-05,-1.1956954962136309e-05,-1.5942606616181746e-05,0.011769629334396174,0.011614188919888403,0.011590275009964129,0.00012355520127540944
1393224,0.1,0.1,0.1,24.82,24.87,24.85,212.2,Stairs,2509.0,4.782781984854524e-05,4.782781984854524e-05,4.782781984854524e-05,0.015069748903945796,0.01516141889198884,0.015197289756875251,0.0001753686727779983
1395733,0.24,0.24,0.25,19.81,19.86,19.76,212.65,Stairs,2509.0,5.5799123156636106e-05,5.5799123156636106e-05,5.9784774810681545e-05,-0.0019968114786767643,-0.0019968114786767643,-0.002028696691909127,0.00017935432443205143
1398242,-0.03,-0.03,-0.03,-16.24,-16.43,-16.58,213.17,Stairs,2509.0,-0.0001076125946592268,-0.0001076125946592268,-0.00011159824631327223,-0.014368274212833798,-0.014463929852530888,-0.014483858110801117,0.00020725388601035543
1400751,-0.29,-0.29,-0.29,-19.75,-20.33,-20.92,213.83,Stairs,2509.0,-0.00010362694300518135,-0.00010362694300518135,-0.00010362694300518135,-0.0013989637305699488,-0.0015544041450777197,-0.0017297728178557207,0.00026305300916700875
1403260,0.21,0.2,0.2,64.06,63.6,63.25,214.29,Stairs,2509.0,0.00019928258270227183,0.00019529693104822639,0.00019529693104822639,0.0334037465125548,0.03345157433240335,0.03354722997210044,0.00018333997608608192
1405769,-0.04,-0.03,-0.03,-52.76,-52.96,-53.25,214.31,Stairs,2509.0,-9.964129135113592e-05,-9.166998804304504e-05,-9.166998804304504e-05,-0.04656038262255879,-0.04645675567955361,-0.046432841769629335,7.97130330809495e-06
1408278,-0.05,-0.05,-0.05,19.24,18.62,17.98,214.18,Stairs,2509.0,-3.985651654045437e-06,-7.971303308090875e-06,-7.971303308090875e-06,0.02869669190912714,0.028529294539657232,0.028389796731765646,-5.181347150258886e-05
1410786,0.06,0.07,0.06,9.01,8.89,8.83,213.88,Stairs,2508.0,4.385964912280702e-05,4.784688995215311e-05,4.385964912280702e-05,-0.004078947368421052,-0.003879585326953748,-0.003648325358851675,-0.0001196172248803873
1413295,-0.07,-0.07,-0.06,18.69,18.05,17.59,213.53,Stairs,2509.0,-5.1813471502590674e-05,-5.579912315663611e-05,-4.7827819848545235e-05,0.003858110801115983,0.00365085691510562,0.003491430848943802,-0.000139497807891588
1415804,0.05,0.05,0.04,-41.26,-42.21,-43.34,213.11,Stairs,2509.0,4.782781984854524e-05,4.782781984854524e-05,3.9856516540454363e-05,-0.023893981666002394,-0.0240175368672778,-0.02428457552809885,-0.00016739736946990336
1418313,0.04,0.04,0.05,33.29,33.6,33.9,212.63,Stairs,2509.0,-3.985651654045437e-06,-3.985651654045437e-06,3.985651654045437e-06,0.029713033080908727,0.030215225189318455,0.030785173375846953,-0.0001913112793941882
1420822,0.22,0.21,0.22,57.64,57.63,57.27,212.07,Stairs,2509.0,7.174172977281785e-05,6.775607811877242e-05,6.775607811877242e-05,0.009705061777600638,0.009577520924671184,0.009314467915504186,-0.00022319649262654535
1423331,0.05,0.05,0.04,75.71,75.67,75.53,211.54,Stairs,2509.0,-6.775607811877242e-05,-6.377042646472697e-05,-7.174172977281785e-05,0.007202072538860101,0.007190115583897967,0.007277799920286966,-0.00021123953766440858
1425840,-0.25,-0.25,-0.25,65.31,65.92,66.49,211.34,Stairs,2509.0,-0.00011956954962136309,-0.00011956954962136309,-0.00011558389796731764,-0.00414507772020725,-0.0038860103626943004,-0.003603029095257077,-7.97130330809042e-05
1428349,-0.21,-0.21,-0.22,40.05,39.8,39.67,211.31,Stairs,2509.0,1.594260661618175e-05,1.594260661618175e-05,1.1956954962136309e-05,-0.010067756078118774,-0.010410522120366682,-0.010689517736149857,-1.1956954962136763e-05
1430858,-0.22,-0.23,-0.23,6.33,5.82,5.3,211.44,Stairs,2509.0,-3.98565165404544e-06,-7.97130330809088e-06,-3.98565165404544e-06,-0.013439617377441211,-0.013543244320446391,-0.013698684734954166,5.181347150258886e-05
1433367,-0.18,-0.17,-0.17,-38.13,-37.96,-37.92,211.65,Stairs,2509.0,1.594260661618175e-05,2.3913909924272617e-05,2.3913909924272617e-05,-0.01772020725388601,-0.017449182941410922,-0.017225986448784376,8.369868473495733e-05
1435876,-0.35,-0.36,-0.35,57.31,57.17,57.08,211.92,Stairs,2509.0,-6.775607811877242e-05,-7.572738142686328e-05,-7.174172977281784e-05,0.03803905938620965,0.03791550418493424,0.037863690713431646,0.00010761259465921953
1438385,-0.2,-0.2,-0.2,11.04,10.37,9.6,212.42,Stairs,2509.0,5.978477481068153e-05,6.377042646472697e-05,5.978477481068153e-05,-0.018441610203268236,-0.018652849740932644,-0.01892387405340773,0.00019928258270227183
1440893,-0.19,-0.2,-0.2,19.12,19.89,20.66,212.98,Stairs,2508.0,3.987240829346096e-06,0.0,0.0,0.0032216905901116433,0.0037958532695374805,0.004409888357256779,0.0002232854864433821
1443402,-0.07,-0.07,-0.07,17.86,18.06,18.11,213.62,Stairs,2509.0,4.7827819848545235e-05,5.1813471502590674e-05,5.1813471502590674e-05,-0.0005021921084097256,-0.0007293742526903156,-0.0010163411717815866,0.00025508170585891385
1445911,-0.21,-0.21,-0.21,-27.92,-28.09,-28.28,214.16,Stairs,2509.0,-5.5799123156636106e-05,-5.5799123156636106e-05,-5.5799123156636106e-05,-0.018246313272220007,-0.01839378238341969,-0.01848943802311678,0.0002152251893184504
1448420,-0.27,-0.27,-0.27,-21.07,-19.14,-17.16,214.57,Stairs,2509.0,-2.3913909924272628e-05,-2.3913909924272628e-05,-2.3913909924272628e-05,0.0027301713830211244,0.003567158230370665,0.004432044639298526,0.00016341171781586154
1450929,-0.01,-0.01,-0.01,-26.87,-26.56,-26.13,214.51,Stairs,2509.0,0.00010362694300518135,0.00010362694300518135,0.00010362694300518135,-0.0023116779593463535,-0.002957353527301713,-0.003575129533678756,-2.3913909924273525e-05
1453438,-0.09,-0.08,-0.08,34.92,35.81,36.53,214.26,Stairs,2509.0,-3.188521323236349e-05,-2.7899561578318056e-05,-2.7899561578318056e-05,0.024627341570346753,0.024858509366281388,0.024974093264248702,-9.964129135113592e-05
1455947,-0.24,-0.24,-0.23,42.95,42.99,43.1,213.84,Stairs,2509.0,-5.9784774810681545e-05,-6.377042646472697e-05,-5.978477481068155e-05,0.003200478278198486,0.0028616978876046233,0.002618573136707852,-0.00016739736946990336
1458456,-0.18,-0.18,-0.19,41.79,42.61,43.36,213.47,Stairs,2509.0,2.3913909924272617e-05,2.3913909924272617e-05,1.594260661618175e-05,-0.0004623355918692721,-0.0001514547628537276,0.00010362694300518055,-0.00014746911119968296
1460965,-0.06,-0.06,-0.06,-56.54,-56.62,-56.7,213.0,Stairs,2509.0,4.7827819848545235e-05,4.7827819848545235e-05,5.1813471502590674e-05,-0.039190912714228775,-0.03954962136309286,-0.03988043045037864,-0.00018732562774013506
1463474,-0.29,-0.29,-0.29,45.74,45.86,45.99,212.52,Stairs,2509.0,-9.166998804304504e-05,-9.166998804304504e-05,-9.166998804304504e-05,0.040765245117576725,0.040844958150657626,0.04092865683539259,-0.00019131127939417687
1465983,-0.1,-0.11,-0.11,-55.44,-55.47,-55.4,211.92,Stairs,2509.0,7.572738142686328e-05,7.174172977281785e-05,7.174172977281785e-05,-0.04032682343563173,-0.040386608210442404,-0.04041052212036668,-0.00023913909924273526
1468492,-0.36,-0.36,-0.37,-66.59,-67.47,-68.3,211.39,Stairs,2509.0,-0.00010362694300518135,-9.964129135113592e-05,-0.00010362694300518135,-0.004444001594260664,-0.004782781984854523,-0.005141490633718613,-0.00021123953766440858
1471000,-0.22,-0.22,-0.23,66.0,66.16,66.3,211.17,Stairs,2508.0,5.582137161084529e-05,5.582137161084529e-05,5.582137161084529e-05,0.05286682615629984,0.05328149920255183,0.0536682615629984,-8.771929824561358e-05
1473509,-0.2,-0.2,-0.2,78.78,78.63,78.58,211.18,Stairs,2509.0,7.97130330809087e-06,7.97130330809087e-06,1.1956954962136309e-05,0.005093662813870068,0.004970107612594659,0.004894380231167796,3.9856516540531394e-06
1476018,-0.22,-0.22,-0.22,-53.51,-53.74,-54.12,211.25,Stairs,2509.0,-7.97130330809087e-06,-7.97130330809087e-06,-7.97130330809087e-06,-0.05272618573136707,-0.052758070944599444,-0.05288959744918294,2.7899561578315336e-05
1478527,-0.23,-0.23,-0.23,34.85,34.73,34.58,211.5,Stairs,2509.0,-3.98565165404544e-06,-3.98565165404544e-06,-3.98565165404544e-06,0.03521721801514548,0.03526106018333998,0.03535273017138302,9.964129135113592e-05
1481036,-0.08,-0.08,-0.08,-6.73,-6.78,-6.81,211.71,Stairs,2509.0,5.978477481068155e-05,5.978477481068155e-05,5.978477481068155e-05,-0.016572339577520925,-0.016544440015942605,-0.016496612196094062,8.369868473495733e-05
1483545,-0.31,-0.3,-0.3,21.46,22.06,22.61,212.07,Stairs,2509.0,-9.166998804304504e-05,-8.768433638899959e-05,-8.768433638899959e-05,0.011235552012754085,0.011494619370267039,0.011725787166201674,0.00014348345954562982
1486053,-0.21,-0.21,-0.21,43.23,43.26,43.31,212.47,Stairs,2508.0,3.9872408293460924e-05,3.5885167464114834e-05,3.5885167464114834e-05,0.008680223285486443,0.008452950558213716,0.008253588516746412,0.00015948963317384597
1488562,-0.23,-0.23,-0.24,-72.85,-72.78,-72.78,212.96,Stairs,2509.0,-7.97130330809088e-06,-7.97130330809088e-06,-1.1956954962136309e-05,-0.04626544440015942,-0.04624950179354324,-0.04626943005181347,0.00019529693104823002
1491070,-0.27,-0.27,-0.27,16.67,16.73,16.74,213.52,Stairs,2508.0,-1.594896331738437e-05,-1.594896331738437e-05,-1.1961722488038288e-05,0.035693779904306215,0.035689792663476876,0.035693779904306215,0.0002232854864433821
1493578,-0.23,-0.23,-0.23,9.01,8.67,8.28,214.07,Stairs,2508.0,1.594896331738437e-05,1.594896331738437e-05,1.594896331738437e-05,-0.0030542264752791075,-0.0032137161084529508,-0.003373205741626794,0.0002192982456140283
1496087,-0.5,-0.49,-0.49,21.29,21.89,22.38,214.18,Stairs,2509.0,-0.0001076125946592268,-0.00010362694300518135,-0.00010362694300518135,0.004894380231167796,0.005269031486648067,0.005619768832204065,4.384216819450524e-05
1498596,-0.27,-0.27,-0.27,47.99,47.44,46.82,214.12,Stairs,2509.0,9.166998804304504e-05,8.768433638899959e-05,8.768433638899959e-05,0.010641689916301317,0.010183339976086088,0.009740932642487047,-2.3913909924273525e-05
1501105,-0.21,-0.21,-0.21,-112.89,-113.41,-113.79,213.78,Stairs,2509.0,2.3913909924272628e-05,2.3913909924272628e-05,2.3913909924272628e-05,-0.06412116381028297,-0.06410920685532084,-0.06401355121562376,-0.0001355121562375462
1503614,-0.28,-0.27,-0.27,58.47,58.22,57.91,213.45,Stairs,2509.0,-2.789956157831807e-05,-2.3913909924272628e-05,-2.3913909924272628e-05,0.0682981267437226,0.06840573933838183,0.06843363889996014,-0.00013152650458350437
